key_resp_17.keys,key_resp_17.rt,key_resp_13.keys,key_resp_13.rt,trials_5.thisRepN,trials_5.thisTrialN,trials_5.thisN,trials_5.thisIndex,trials_5.ran,Text,Condition,participant,Gender*,Age*,Estimated hours since last sleep*,date,expName,psychopyVersion,OS,frameRate,fbclid,key_resp_2.keys,key_resp_2.rt,key_resp_11.keys,key_resp_11.rt,trials_6.thisRepN,trials_6.thisTrialN,trials_6.thisN,trials_6.thisIndex,trials_6.ran,Word,key_resp_3.keys,key_resp_3.rt,key_resp_9.keys,key_resp_9.rt,trials_2.thisRepN,trials_2.thisTrialN,trials_2.thisN,trials_2.thisIndex,trials_2.ran,Stimuli,keyrespp.keys,keyrespp.rt,key_resp_4.keys,key_resp_4.rt,trials.thisRepN,trials.thisTrialN,trials.thisN,trials.thisIndex,trials.ran,Response,Congr,RightAns,key_resp_8.keys,key_resp_8.rt,key_resp_10.keys,key_resp_10.rt,trials_4.thisRepN,trials_4.thisTrialN,trials_4.thisN,trials_4.thisIndex,trials_4.ran,key_resp_14.keys,key_resp_14.rt,trials_7.thisRepN,trials_7.thisTrialN,trials_7.thisN,trials_7.thisIndex,trials_7.ran,key_resp_5.keys,key_resp_5.rt,key_resp_12.keys,key_resp_12.rt,trials_3.thisRepN,trials_3.thisTrialN,trials_3.thisN,trials_3.thisIndex,trials_3.ran,key_resp_6.keys,key_resp_6.rt,key_resp_15.keys,key_resp_15.rt,socialexc.thisRepN,socialexc.thisTrialN,socialexc.thisN,socialexc.thisIndex,socialexc.ran,Question,key_resp_7.keys,key_resp_7.rt,key_resp_16.keys,key_resp_16.rt
y,14.455,space,5.1495,0,0,0,0,1,"Please complete all tasks. It will take no more than 5-10 minutes.

Thank you for contributing to science and deciding to offer your time. Your participation is highly valued. 

Press SPACE to start the experiment",1,BroNo,man,27,13-15h,2021-12-02_21h08.39.749,bachelor,2021.2.3,Win32,59.99880002,IwAR2wFWkhAttIX2us655vg4wXxSR46FU7qlyNXrNrDCe1QtEw46K5sxflouw,,,,,,,,,,,,,,,,,,,,,,,,,,,,,,,,,,,,,,,,,,,,,,,,,,,,,,,,,,,,,,,,,,,,,,,
,,,,,,,,,,,BroNo,man,27,13-15h,2021-12-02_21h08.39.749,bachelor,2021.2.3,Win32,59.99880002,IwAR2wFWkhAttIX2us655vg4wXxSR46FU7qlyNXrNrDCe1QtEw46K5sxflouw,space,15.5432,left,1.5096,0,0,0,5,1,cold,,,,,,,,,,,,,,,,,,,,,,,,,,,,,,,,,,,,,,,,,,,,,,,,,,,,,,,,,,,,,
,,,,,,,,,,,BroNo,man,27,13-15h,2021-12-02_21h08.39.749,bachelor,2021.2.3,Win32,59.99880002,IwAR2wFWkhAttIX2us655vg4wXxSR46FU7qlyNXrNrDCe1QtEw46K5sxflouw,,,right,1.3541,0,1,1,22,1,woman,,,,,,,,,,,,,,,,,,,,,,,,,,,,,,,,,,,,,,,,,,,,,,,,,,,,,,,,,,,,,
,,,,,,,,,,,BroNo,man,27,13-15h,2021-12-02_21h08.39.749,bachelor,2021.2.3,Win32,59.99880002,IwAR2wFWkhAttIX2us655vg4wXxSR46FU7qlyNXrNrDCe1QtEw46K5sxflouw,,,right,2.2264,0,2,2,24,1,lip,,,,,,,,,,,,,,,,,,,,,,,,,,,,,,,,,,,,,,,,,,,,,,,,,,,,,,,,,,,,,
,,,,,,,,,,,BroNo,man,27,13-15h,2021-12-02_21h08.39.749,bachelor,2021.2.3,Win32,59.99880002,IwAR2wFWkhAttIX2us655vg4wXxSR46FU7qlyNXrNrDCe1QtEw46K5sxflouw,,,right,1.4549,0,3,3,20,1,journalist,,,,,,,,,,,,,,,,,,,,,,,,,,,,,,,,,,,,,,,,,,,,,,,,,,,,,,,,,,,,,
,,,,,,,,,,,BroNo,man,27,13-15h,2021-12-02_21h08.39.749,bachelor,2021.2.3,Win32,59.99880002,IwAR2wFWkhAttIX2us655vg4wXxSR46FU7qlyNXrNrDCe1QtEw46K5sxflouw,,,right,1.1604,0,4,4,4,1,hospital,,,,,,,,,,,,,,,,,,,,,,,,,,,,,,,,,,,,,,,,,,,,,,,,,,,,,,,,,,,,,
,,,,,,,,,,,BroNo,man,27,13-15h,2021-12-02_21h08.39.749,bachelor,2021.2.3,Win32,59.99880002,IwAR2wFWkhAttIX2us655vg4wXxSR46FU7qlyNXrNrDCe1QtEw46K5sxflouw,,,left,1.0392,0,5,5,25,1,soccer,,,,,,,,,,,,,,,,,,,,,,,,,,,,,,,,,,,,,,,,,,,,,,,,,,,,,,,,,,,,,
,,,,,,,,,,,BroNo,man,27,13-15h,2021-12-02_21h08.39.749,bachelor,2021.2.3,Win32,59.99880002,IwAR2wFWkhAttIX2us655vg4wXxSR46FU7qlyNXrNrDCe1QtEw46K5sxflouw,,,right,1.5875,0,6,6,21,1,ambulance,,,,,,,,,,,,,,,,,,,,,,,,,,,,,,,,,,,,,,,,,,,,,,,,,,,,,,,,,,,,,
,,,,,,,,,,,BroNo,man,27,13-15h,2021-12-02_21h08.39.749,bachelor,2021.2.3,Win32,59.99880002,IwAR2wFWkhAttIX2us655vg4wXxSR46FU7qlyNXrNrDCe1QtEw46K5sxflouw,,,left,1.0226,0,7,7,9,1,hot,,,,,,,,,,,,,,,,,,,,,,,,,,,,,,,,,,,,,,,,,,,,,,,,,,,,,,,,,,,,,
,,,,,,,,,,,BroNo,man,27,13-15h,2021-12-02_21h08.39.749,bachelor,2021.2.3,Win32,59.99880002,IwAR2wFWkhAttIX2us655vg4wXxSR46FU7qlyNXrNrDCe1QtEw46K5sxflouw,,,right,1.272,0,8,8,10,1,church,,,,,,,,,,,,,,,,,,,,,,,,,,,,,,,,,,,,,,,,,,,,,,,,,,,,,,,,,,,,,
,,,,,,,,,,,BroNo,man,27,13-15h,2021-12-02_21h08.39.749,bachelor,2021.2.3,Win32,59.99880002,IwAR2wFWkhAttIX2us655vg4wXxSR46FU7qlyNXrNrDCe1QtEw46K5sxflouw,,,left,2.5218,0,9,9,6,1,airport,,,,,,,,,,,,,,,,,,,,,,,,,,,,,,,,,,,,,,,,,,,,,,,,,,,,,,,,,,,,,
,,,,,,,,,,,BroNo,man,27,13-15h,2021-12-02_21h08.39.749,bachelor,2021.2.3,Win32,59.99880002,IwAR2wFWkhAttIX2us655vg4wXxSR46FU7qlyNXrNrDCe1QtEw46K5sxflouw,,,right,0.8885,0,10,10,7,1,cough,,,,,,,,,,,,,,,,,,,,,,,,,,,,,,,,,,,,,,,,,,,,,,,,,,,,,,,,,,,,,
,,,,,,,,,,,BroNo,man,27,13-15h,2021-12-02_21h08.39.749,bachelor,2021.2.3,Win32,59.99880002,IwAR2wFWkhAttIX2us655vg4wXxSR46FU7qlyNXrNrDCe1QtEw46K5sxflouw,,,right,0.9222,0,11,11,15,1,minister,,,,,,,,,,,,,,,,,,,,,,,,,,,,,,,,,,,,,,,,,,,,,,,,,,,,,,,,,,,,,
,,,,,,,,,,,BroNo,man,27,13-15h,2021-12-02_21h08.39.749,bachelor,2021.2.3,Win32,59.99880002,IwAR2wFWkhAttIX2us655vg4wXxSR46FU7qlyNXrNrDCe1QtEw46K5sxflouw,,,left,0.945,0,12,12,17,1,scientist,,,,,,,,,,,,,,,,,,,,,,,,,,,,,,,,,,,,,,,,,,,,,,,,,,,,,,,,,,,,,
,,,,,,,,,,,BroNo,man,27,13-15h,2021-12-02_21h08.39.749,bachelor,2021.2.3,Win32,59.99880002,IwAR2wFWkhAttIX2us655vg4wXxSR46FU7qlyNXrNrDCe1QtEw46K5sxflouw,,,left,0.928,0,13,13,19,1,wonder,,,,,,,,,,,,,,,,,,,,,,,,,,,,,,,,,,,,,,,,,,,,,,,,,,,,,,,,,,,,,
,,,,,,,,,,,BroNo,man,27,13-15h,2021-12-02_21h08.39.749,bachelor,2021.2.3,Win32,59.99880002,IwAR2wFWkhAttIX2us655vg4wXxSR46FU7qlyNXrNrDCe1QtEw46K5sxflouw,,,left,0.9413,0,14,14,11,1,gasp,,,,,,,,,,,,,,,,,,,,,,,,,,,,,,,,,,,,,,,,,,,,,,,,,,,,,,,,,,,,,
,,,,,,,,,,,BroNo,man,27,13-15h,2021-12-02_21h08.39.749,bachelor,2021.2.3,Win32,59.99880002,IwAR2wFWkhAttIX2us655vg4wXxSR46FU7qlyNXrNrDCe1QtEw46K5sxflouw,,,left,0.839,0,15,15,26,1,eye,,,,,,,,,,,,,,,,,,,,,,,,,,,,,,,,,,,,,,,,,,,,,,,,,,,,,,,,,,,,,
,,,,,,,,,,,BroNo,man,27,13-15h,2021-12-02_21h08.39.749,bachelor,2021.2.3,Win32,59.99880002,IwAR2wFWkhAttIX2us655vg4wXxSR46FU7qlyNXrNrDCe1QtEw46K5sxflouw,,,right,0.9942,0,16,16,14,1,tourist,,,,,,,,,,,,,,,,,,,,,,,,,,,,,,,,,,,,,,,,,,,,,,,,,,,,,,,,,,,,,
,,,,,,,,,,,BroNo,man,27,13-15h,2021-12-02_21h08.39.749,bachelor,2021.2.3,Win32,59.99880002,IwAR2wFWkhAttIX2us655vg4wXxSR46FU7qlyNXrNrDCe1QtEw46K5sxflouw,,,left,0.9718,0,17,17,12,1,forest,,,,,,,,,,,,,,,,,,,,,,,,,,,,,,,,,,,,,,,,,,,,,,,,,,,,,,,,,,,,,
,,,,,,,,,,,BroNo,man,27,13-15h,2021-12-02_21h08.39.749,bachelor,2021.2.3,Win32,59.99880002,IwAR2wFWkhAttIX2us655vg4wXxSR46FU7qlyNXrNrDCe1QtEw46K5sxflouw,,,right,1.0604,0,18,18,18,1,screech,,,,,,,,,,,,,,,,,,,,,,,,,,,,,,,,,,,,,,,,,,,,,,,,,,,,,,,,,,,,,
,,,,,,,,,,,BroNo,man,27,13-15h,2021-12-02_21h08.39.749,bachelor,2021.2.3,Win32,59.99880002,IwAR2wFWkhAttIX2us655vg4wXxSR46FU7qlyNXrNrDCe1QtEw46K5sxflouw,,,right,0.9571,0,19,19,23,1,fee,,,,,,,,,,,,,,,,,,,,,,,,,,,,,,,,,,,,,,,,,,,,,,,,,,,,,,,,,,,,,
,,,,,,,,,,,BroNo,man,27,13-15h,2021-12-02_21h08.39.749,bachelor,2021.2.3,Win32,59.99880002,IwAR2wFWkhAttIX2us655vg4wXxSR46FU7qlyNXrNrDCe1QtEw46K5sxflouw,,,left,0.8571,0,20,20,0,1,drank,,,,,,,,,,,,,,,,,,,,,,,,,,,,,,,,,,,,,,,,,,,,,,,,,,,,,,,,,,,,,
,,,,,,,,,,,BroNo,man,27,13-15h,2021-12-02_21h08.39.749,bachelor,2021.2.3,Win32,59.99880002,IwAR2wFWkhAttIX2us655vg4wXxSR46FU7qlyNXrNrDCe1QtEw46K5sxflouw,,,right,0.9074,0,21,21,16,1,gunshot,,,,,,,,,,,,,,,,,,,,,,,,,,,,,,,,,,,,,,,,,,,,,,,,,,,,,,,,,,,,,
,,,,,,,,,,,BroNo,man,27,13-15h,2021-12-02_21h08.39.749,bachelor,2021.2.3,Win32,59.99880002,IwAR2wFWkhAttIX2us655vg4wXxSR46FU7qlyNXrNrDCe1QtEw46K5sxflouw,,,left,0.8718,0,22,22,27,1,applause,,,,,,,,,,,,,,,,,,,,,,,,,,,,,,,,,,,,,,,,,,,,,,,,,,,,,,,,,,,,,
,,,,,,,,,,,BroNo,man,27,13-15h,2021-12-02_21h08.39.749,bachelor,2021.2.3,Win32,59.99880002,IwAR2wFWkhAttIX2us655vg4wXxSR46FU7qlyNXrNrDCe1QtEw46K5sxflouw,,,left,3.3722,0,23,23,3,1,foot,,,,,,,,,,,,,,,,,,,,,,,,,,,,,,,,,,,,,,,,,,,,,,,,,,,,,,,,,,,,,
,,,,,,,,,,,BroNo,man,27,13-15h,2021-12-02_21h08.39.749,bachelor,2021.2.3,Win32,59.99880002,IwAR2wFWkhAttIX2us655vg4wXxSR46FU7qlyNXrNrDCe1QtEw46K5sxflouw,,,right,0.8228,0,24,24,13,1,belch,,,,,,,,,,,,,,,,,,,,,,,,,,,,,,,,,,,,,,,,,,,,,,,,,,,,,,,,,,,,,
,,,,,,,,,,,BroNo,man,27,13-15h,2021-12-02_21h08.39.749,bachelor,2021.2.3,Win32,59.99880002,IwAR2wFWkhAttIX2us655vg4wXxSR46FU7qlyNXrNrDCe1QtEw46K5sxflouw,,,left,4.9055,0,25,25,1,1,ricochet,,,,,,,,,,,,,,,,,,,,,,,,,,,,,,,,,,,,,,,,,,,,,,,,,,,,,,,,,,,,,
,,,,,,,,,,,BroNo,man,27,13-15h,2021-12-02_21h08.39.749,bachelor,2021.2.3,Win32,59.99880002,IwAR2wFWkhAttIX2us655vg4wXxSR46FU7qlyNXrNrDCe1QtEw46K5sxflouw,,,left,0.8181,0,26,26,2,1,home,,,,,,,,,,,,,,,,,,,,,,,,,,,,,,,,,,,,,,,,,,,,,,,,,,,,,,,,,,,,,
,,,,,,,,,,,BroNo,man,27,13-15h,2021-12-02_21h08.39.749,bachelor,2021.2.3,Win32,59.99880002,IwAR2wFWkhAttIX2us655vg4wXxSR46FU7qlyNXrNrDCe1QtEw46K5sxflouw,,,left,0.7548,0,27,27,8,1,college,,,,,,,,,,,,,,,,,,,,,,,,,,,,,,,,,,,,,,,,,,,,,,,,,,,,,,,,,,,,,
,,,,,,,,,,,BroNo,man,27,13-15h,2021-12-02_21h08.39.749,bachelor,2021.2.3,Win32,59.99880002,IwAR2wFWkhAttIX2us655vg4wXxSR46FU7qlyNXrNrDCe1QtEw46K5sxflouw,,,,,,,,,,,space,23.0297,right,3.6295,0,0,0,2,1,10 - 5 - 16 = 21?,,,,,,,,,,,,,,,,,,,,,,,,,,,,,,,,,,,,,,,,,,,,,,,,,,,
,,,,,,,,,,,BroNo,man,27,13-15h,2021-12-02_21h08.39.749,bachelor,2021.2.3,Win32,59.99880002,IwAR2wFWkhAttIX2us655vg4wXxSR46FU7qlyNXrNrDCe1QtEw46K5sxflouw,,,,,,,,,,,,,right,2.0216,0,1,1,0,1,5 x 5 - 10 = 22?,,,,,,,,,,,,,,,,,,,,,,,,,,,,,,,,,,,,,,,,,,,,,,,,,,,
,,,,,,,,,,,BroNo,man,27,13-15h,2021-12-02_21h08.39.749,bachelor,2021.2.3,Win32,59.99880002,IwAR2wFWkhAttIX2us655vg4wXxSR46FU7qlyNXrNrDCe1QtEw46K5sxflouw,,,,,,,,,,,,,left,4.7448,0,2,2,1,1,10 - 18 + 1 = -9?,,,,,,,,,,,,,,,,,,,,,,,,,,,,,,,,,,,,,,,,,,,,,,,,,,,
,,,,,,,,,,,BroNo,man,27,13-15h,2021-12-02_21h08.39.749,bachelor,2021.2.3,Win32,59.99880002,IwAR2wFWkhAttIX2us655vg4wXxSR46FU7qlyNXrNrDCe1QtEw46K5sxflouw,,,,,,,,,,,,,left,2.2166,0,3,3,3,1,2 + 20 x 4 = 82?,,,,,,,,,,,,,,,,,,,,,,,,,,,,,,,,,,,,,,,,,,,,,,,,,,,
,,,,,,,,,,,BroNo,man,27,13-15h,2021-12-02_21h08.39.749,bachelor,2021.2.3,Win32,59.99880002,IwAR2wFWkhAttIX2us655vg4wXxSR46FU7qlyNXrNrDCe1QtEw46K5sxflouw,,,,,,,,,,,,,right,2.6726,0,4,4,4,1,11 + 3 - 7 = 8?,,,,,,,,,,,,,,,,,,,,,,,,,,,,,,,,,,,,,,,,,,,,,,,,,,,
,,,,,,,,,,,BroNo,man,27,13-15h,2021-12-02_21h08.39.749,bachelor,2021.2.3,Win32,59.99880002,IwAR2wFWkhAttIX2us655vg4wXxSR46FU7qlyNXrNrDCe1QtEw46K5sxflouw,,,,,,,,,,,,,,,,,,,,14 x 2 - 3 = 25?,space,4.2333,left,1.8463,0,0,0,13,1,TRY HARDER,1,left,,,,,,,,,,,,,,,,,,,,,,,,,,,,,,,,,,,,,,,
,,,,,,,,,,,BroNo,man,27,13-15h,2021-12-02_21h08.39.749,bachelor,2021.2.3,Win32,59.99880002,IwAR2wFWkhAttIX2us655vg4wXxSR46FU7qlyNXrNrDCe1QtEw46K5sxflouw,,,,,,,,,,,,,,,,,,,,5 x 5 - 29 = -40?,,,right,2.3504,0,1,1,7,1,SPEED UP,0,right,,,,,,,,,,,,,,,,,,,,,,,,,,,,,,,,,,,,,,,
,,,,,,,,,,,BroNo,man,27,13-15h,2021-12-02_21h08.39.749,bachelor,2021.2.3,Win32,59.99880002,IwAR2wFWkhAttIX2us655vg4wXxSR46FU7qlyNXrNrDCe1QtEw46K5sxflouw,,,,,,,,,,,,,,,,,,,,14 x 2 + 10 = 38?,,,left,1.5831,0,2,2,4,1,CONCENTRATE,1,left,,,,,,,,,,,,,,,,,,,,,,,,,,,,,,,,,,,,,,,
,,,,,,,,,,,BroNo,man,27,13-15h,2021-12-02_21h08.39.749,bachelor,2021.2.3,Win32,59.99880002,IwAR2wFWkhAttIX2us655vg4wXxSR46FU7qlyNXrNrDCe1QtEw46K5sxflouw,,,,,,,,,,,,,,,,,,,,72 + 17 x 3 = 121?,,,right,2.8722,0,3,3,2,1,RESPONSE RECORDED,0,right,,,,,,,,,,,,,,,,,,,,,,,,,,,,,,,,,,,,,,,
,,,,,,,,,,,BroNo,man,27,13-15h,2021-12-02_21h08.39.749,bachelor,2021.2.3,Win32,59.99880002,IwAR2wFWkhAttIX2us655vg4wXxSR46FU7qlyNXrNrDCe1QtEw46K5sxflouw,,,,,,,,,,,,,,,,,,,,50 x 3 + 12 = 147?,,,right,1.8363,0,4,4,1,1,SPEED UP,1,left,,,,,,,,,,,,,,,,,,,,,,,,,,,,,,,,,,,,,,,
,,,,,,,,,,,BroNo,man,27,13-15h,2021-12-02_21h08.39.749,bachelor,2021.2.3,Win32,59.99880002,IwAR2wFWkhAttIX2us655vg4wXxSR46FU7qlyNXrNrDCe1QtEw46K5sxflouw,,,,,,,,,,,,,,,,,,,,54 + 60 - 1 = 113?,,,left,2.8219,0,5,5,5,1,PAY ATTENTION,1,left,,,,,,,,,,,,,,,,,,,,,,,,,,,,,,,,,,,,,,,
,,,,,,,,,,,BroNo,man,27,13-15h,2021-12-02_21h08.39.749,bachelor,2021.2.3,Win32,59.99880002,IwAR2wFWkhAttIX2us655vg4wXxSR46FU7qlyNXrNrDCe1QtEw46K5sxflouw,,,,,,,,,,,,,,,,,,,,47 + 13 - 7 = 53?,,,left,1.8344,0,6,6,11,1,RESPONSE RECORDED,1,left,,,,,,,,,,,,,,,,,,,,,,,,,,,,,,,,,,,,,,,
,,,,,,,,,,,BroNo,man,27,13-15h,2021-12-02_21h08.39.749,bachelor,2021.2.3,Win32,59.99880002,IwAR2wFWkhAttIX2us655vg4wXxSR46FU7qlyNXrNrDCe1QtEw46K5sxflouw,,,,,,,,,,,,,,,,,,,,35 - 65 - 20 = - 55?,,,left,3.7844,0,7,7,10,1,RESPONSE RECORDED,0,right,,,,,,,,,,,,,,,,,,,,,,,,,,,,,,,,,,,,,,,
,,,,,,,,,,,BroNo,man,27,13-15h,2021-12-02_21h08.39.749,bachelor,2021.2.3,Win32,59.99880002,IwAR2wFWkhAttIX2us655vg4wXxSR46FU7qlyNXrNrDCe1QtEw46K5sxflouw,,,,,,,,,,,,,,,,,,,,2 - 15 + 39 = 27?,,,,,0,8,8,0,1,RESPONSE RECORDED,0,right,,,,,,,,,,,,,,,,,,,,,,,,,,,,,,,,,,,,,,,
,,,,,,,,,,,BroNo,man,27,13-15h,2021-12-02_21h08.39.749,bachelor,2021.2.3,Win32,59.99880002,IwAR2wFWkhAttIX2us655vg4wXxSR46FU7qlyNXrNrDCe1QtEw46K5sxflouw,,,,,,,,,,,,,,,,,,,,7 x 11 - 21 = 56?,,,left,2.3339,0,9,9,9,1,SPEED UP,1,left,,,,,,,,,,,,,,,,,,,,,,,,,,,,,,,,,,,,,,,
,,,,,,,,,,,BroNo,man,27,13-15h,2021-12-02_21h08.39.749,bachelor,2021.2.3,Win32,59.99880002,IwAR2wFWkhAttIX2us655vg4wXxSR46FU7qlyNXrNrDCe1QtEw46K5sxflouw,,,,,,,,,,,,,,,,,,,,54 - 40 x -2 = - 27?,,,right,2.1675,0,10,10,8,1,RESPONSE RECORDED,0,right,,,,,,,,,,,,,,,,,,,,,,,,,,,,,,,,,,,,,,,
,,,,,,,,,,,BroNo,man,27,13-15h,2021-12-02_21h08.39.749,bachelor,2021.2.3,Win32,59.99880002,IwAR2wFWkhAttIX2us655vg4wXxSR46FU7qlyNXrNrDCe1QtEw46K5sxflouw,,,,,,,,,,,,,,,,,,,,53 + 13 x 7 = -150?,,,right,2.1179,0,11,11,12,1,YOU’RE NOT TRYING HARD ENOUGH,0,right,,,,,,,,,,,,,,,,,,,,,,,,,,,,,,,,,,,,,,,
,,,,,,,,,,,BroNo,man,27,13-15h,2021-12-02_21h08.39.749,bachelor,2021.2.3,Win32,59.99880002,IwAR2wFWkhAttIX2us655vg4wXxSR46FU7qlyNXrNrDCe1QtEw46K5sxflouw,,,,,,,,,,,,,,,,,,,,2 x 40 + 3 = 84?,,,right,2.3903,0,12,12,6,1,RESPONSE RECORDED,0,right,,,,,,,,,,,,,,,,,,,,,,,,,,,,,,,,,,,,,,,
,,,,,,,,,,,BroNo,man,27,13-15h,2021-12-02_21h08.39.749,bachelor,2021.2.3,Win32,59.99880002,IwAR2wFWkhAttIX2us655vg4wXxSR46FU7qlyNXrNrDCe1QtEw46K5sxflouw,,,,,,,,,,,,,,,,,,,,6 - 58 + 11 = -41?,,,right,2.6345,0,13,13,3,1,RESPONSE RECORDED,1,left,,,,,,,,,,,,,,,,,,,,,,,,,,,,,,,,,,,,,,,
,,,,,,,,,,,BroNo,man,27,13-15h,2021-12-02_21h08.39.749,bachelor,2021.2.3,Win32,59.99880002,IwAR2wFWkhAttIX2us655vg4wXxSR46FU7qlyNXrNrDCe1QtEw46K5sxflouw,,,,,,,,,,,,,,,,,,,,7 x 11 - 21 = 56?,,,,,,,,,,GO FASTER,1,left,space,8.6983,left,3.5466,0,0,0,9,1,,,,,,,,,,,,,,,,,,,,,,,,,,,,,,
,,,,,,,,,,,BroNo,man,27,13-15h,2021-12-02_21h08.39.749,bachelor,2021.2.3,Win32,59.99880002,IwAR2wFWkhAttIX2us655vg4wXxSR46FU7qlyNXrNrDCe1QtEw46K5sxflouw,,,,,,,,,,,,,,,,,,,,20 x 2 - 77 = 24?,,,,,,,,,,YOU NEED TO CONCENTRATE,0,right,,,right,2.1511,0,1,1,11,1,,,,,,,,,,,,,,,,,,,,,,,,,,,,,,
,,,,,,,,,,,BroNo,man,27,13-15h,2021-12-02_21h08.39.749,bachelor,2021.2.3,Win32,59.99880002,IwAR2wFWkhAttIX2us655vg4wXxSR46FU7qlyNXrNrDCe1QtEw46K5sxflouw,,,,,,,,,,,,,,,,,,,,10 x 11 + 45 = 155?,,,,,,,,,,RESPONSE RECORDED,1,left,,,left,2.6232,0,2,2,10,1,,,,,,,,,,,,,,,,,,,,,,,,,,,,,,
,,,,,,,,,,,BroNo,man,27,13-15h,2021-12-02_21h08.39.749,bachelor,2021.2.3,Win32,59.99880002,IwAR2wFWkhAttIX2us655vg4wXxSR46FU7qlyNXrNrDCe1QtEw46K5sxflouw,,,,,,,,,,,,,,,,,,,,13 x 3 + 2 = 90?,,,,,,,,,,RESPONSE RECORDED,0,right,,,right,2.1532,0,3,3,12,1,,,,,,,,,,,,,,,,,,,,,,,,,,,,,,
,,,,,,,,,,,BroNo,man,27,13-15h,2021-12-02_21h08.39.749,bachelor,2021.2.3,Win32,59.99880002,IwAR2wFWkhAttIX2us655vg4wXxSR46FU7qlyNXrNrDCe1QtEw46K5sxflouw,,,,,,,,,,,,,,,,,,,,7 - 8 - 9 = -11?,,,,,,,,,,SPEED UP,0,right,,,right,1.9009,0,4,4,7,1,,,,,,,,,,,,,,,,,,,,,,,,,,,,,,
,,,,,,,,,,,BroNo,man,27,13-15h,2021-12-02_21h08.39.749,bachelor,2021.2.3,Win32,59.99880002,IwAR2wFWkhAttIX2us655vg4wXxSR46FU7qlyNXrNrDCe1QtEw46K5sxflouw,,,,,,,,,,,,,,,,,,,,12 + 10 x 4 = 70?,,,,,,,,,,RESPONSE RECORDED,0,right,,,right,1.5167,0,5,5,6,1,,,,,,,,,,,,,,,,,,,,,,,,,,,,,,
,,,,,,,,,,,BroNo,man,27,13-15h,2021-12-02_21h08.39.749,bachelor,2021.2.3,Win32,59.99880002,IwAR2wFWkhAttIX2us655vg4wXxSR46FU7qlyNXrNrDCe1QtEw46K5sxflouw,,,,,,,,,,,,,,,,,,,,2 x 40 + 10 = 800?,,,,,,,,,,RESPONSE RECORDED,0,right,,,right,1.6227,0,6,6,2,1,,,,,,,,,,,,,,,,,,,,,,,,,,,,,,
,,,,,,,,,,,BroNo,man,27,13-15h,2021-12-02_21h08.39.749,bachelor,2021.2.3,Win32,59.99880002,IwAR2wFWkhAttIX2us655vg4wXxSR46FU7qlyNXrNrDCe1QtEw46K5sxflouw,,,,,,,,,,,,,,,,,,,,62 - 15 x 3 = 5?,,,,,,,,,,PAY ATTENTION,0,right,,,right,3.0507,0,7,7,8,1,,,,,,,,,,,,,,,,,,,,,,,,,,,,,,
,,,,,,,,,,,BroNo,man,27,13-15h,2021-12-02_21h08.39.749,bachelor,2021.2.3,Win32,59.99880002,IwAR2wFWkhAttIX2us655vg4wXxSR46FU7qlyNXrNrDCe1QtEw46K5sxflouw,,,,,,,,,,,,,,,,,,,,6 - 13 + 4 = -3?,,,,,,,,,,CONCENTRATE,1,left,,,right,2.2349,0,8,8,3,1,,,,,,,,,,,,,,,,,,,,,,,,,,,,,,
,,,,,,,,,,,BroNo,man,27,13-15h,2021-12-02_21h08.39.749,bachelor,2021.2.3,Win32,59.99880002,IwAR2wFWkhAttIX2us655vg4wXxSR46FU7qlyNXrNrDCe1QtEw46K5sxflouw,,,,,,,,,,,,,,,,,,,,55 - 66 + 14 = 3?,,,,,,,,,,RESPONSE RECORDED,1,left,,,right,2.5673,0,9,9,13,1,,,,,,,,,,,,,,,,,,,,,,,,,,,,,,
,,,,,,,,,,,BroNo,man,27,13-15h,2021-12-02_21h08.39.749,bachelor,2021.2.3,Win32,59.99880002,IwAR2wFWkhAttIX2us655vg4wXxSR46FU7qlyNXrNrDCe1QtEw46K5sxflouw,,,,,,,,,,,,,,,,,,,,56 - 6 x 3 = 33?,,,,,,,,,,SPEED UP,0,right,,,right,2.8519,0,10,10,1,1,,,,,,,,,,,,,,,,,,,,,,,,,,,,,,
,,,,,,,,,,,BroNo,man,27,13-15h,2021-12-02_21h08.39.749,bachelor,2021.2.3,Win32,59.99880002,IwAR2wFWkhAttIX2us655vg4wXxSR46FU7qlyNXrNrDCe1QtEw46K5sxflouw,,,,,,,,,,,,,,,,,,,,7 + 46 + 16 = 67?,,,,,,,,,,RESPONSE RECORDED,0,right,,,right,2.517,0,11,11,4,1,,,,,,,,,,,,,,,,,,,,,,,,,,,,,,
,,,,,,,,,,,BroNo,man,27,13-15h,2021-12-02_21h08.39.749,bachelor,2021.2.3,Win32,59.99880002,IwAR2wFWkhAttIX2us655vg4wXxSR46FU7qlyNXrNrDCe1QtEw46K5sxflouw,,,,,,,,,,,,,,,,,,,,17 x 2 - 10 = 24?,,,,,,,,,,RESPONSE RECORDED,1,left,,,left,3.4044,0,12,12,0,1,,,,,,,,,,,,,,,,,,,,,,,,,,,,,,
,,,,,,,,,,,BroNo,man,27,13-15h,2021-12-02_21h08.39.749,bachelor,2021.2.3,Win32,59.99880002,IwAR2wFWkhAttIX2us655vg4wXxSR46FU7qlyNXrNrDCe1QtEw46K5sxflouw,,,,,,,,,,,,,,,,,,,,33 - 15 - 49 = -40?,,,,,,,,,,TRY HARDER,0,right,,,right,2.0524,0,13,13,5,1,,,,,,,,,,,,,,,,,,,,,,,,,,,,,,
,,,,,,,,,"You have now completed the mental arithmetic task. You are halfway through the experiment.

Thank you for deciding to finish the tasks, it is much appreciated! Your effort is valued.

Press space to continue",,BroNo,man,27,13-15h,2021-12-02_21h08.39.749,bachelor,2021.2.3,Win32,59.99880002,IwAR2wFWkhAttIX2us655vg4wXxSR46FU7qlyNXrNrDCe1QtEw46K5sxflouw,,,,,,,,,,,,,,,,,,,,,,,,,,,,,,,,,,,,,,,,,,space,6.9447,0,0,0,0,1,,,,,,,,,,,,,,,,,,,,,,,
,,,,,,,,,,,BroNo,man,27,13-15h,2021-12-02_21h08.39.749,bachelor,2021.2.3,Win32,59.99880002,IwAR2wFWkhAttIX2us655vg4wXxSR46FU7qlyNXrNrDCe1QtEw46K5sxflouw,,,,,,,,,,volcano,,,,,,,,,,,,,,,,,,,,,,,,,,,,,,,,,,,,,,,space,7.9155,right,1.1189,0,0,0,19,1,,,,,,,,,,,,,,
,,,,,,,,,,,BroNo,man,27,13-15h,2021-12-02_21h08.39.749,bachelor,2021.2.3,Win32,59.99880002,IwAR2wFWkhAttIX2us655vg4wXxSR46FU7qlyNXrNrDCe1QtEw46K5sxflouw,,,,,,,,,,bridge,,,,,,,,,,,,,,,,,,,,,,,,,,,,,,,,,,,,,,,,,left,0.9554,0,1,1,14,1,,,,,,,,,,,,,,
,,,,,,,,,,,BroNo,man,27,13-15h,2021-12-02_21h08.39.749,bachelor,2021.2.3,Win32,59.99880002,IwAR2wFWkhAttIX2us655vg4wXxSR46FU7qlyNXrNrDCe1QtEw46K5sxflouw,,,,,,,,,,thunder,,,,,,,,,,,,,,,,,,,,,,,,,,,,,,,,,,,,,,,,,left,1.1921,0,2,2,21,1,,,,,,,,,,,,,,
,,,,,,,,,,,BroNo,man,27,13-15h,2021-12-02_21h08.39.749,bachelor,2021.2.3,Win32,59.99880002,IwAR2wFWkhAttIX2us655vg4wXxSR46FU7qlyNXrNrDCe1QtEw46K5sxflouw,,,,,,,,,,football,,,,,,,,,,,,,,,,,,,,,,,,,,,,,,,,,,,,,,,,,right,0.9704,0,3,3,27,1,,,,,,,,,,,,,,
,,,,,,,,,,,BroNo,man,27,13-15h,2021-12-02_21h08.39.749,bachelor,2021.2.3,Win32,59.99880002,IwAR2wFWkhAttIX2us655vg4wXxSR46FU7qlyNXrNrDCe1QtEw46K5sxflouw,,,,,,,,,,stole,,,,,,,,,,,,,,,,,,,,,,,,,,,,,,,,,,,,,,,,,right,2.6957,0,4,4,3,1,,,,,,,,,,,,,,
,,,,,,,,,,,BroNo,man,27,13-15h,2021-12-02_21h08.39.749,bachelor,2021.2.3,Win32,59.99880002,IwAR2wFWkhAttIX2us655vg4wXxSR46FU7qlyNXrNrDCe1QtEw46K5sxflouw,,,,,,,,,,squeal,,,,,,,,,,,,,,,,,,,,,,,,,,,,,,,,,,,,,,,,,right,0.8516,0,5,5,9,1,,,,,,,,,,,,,,
,,,,,,,,,,,BroNo,man,27,13-15h,2021-12-02_21h08.39.749,bachelor,2021.2.3,Win32,59.99880002,IwAR2wFWkhAttIX2us655vg4wXxSR46FU7qlyNXrNrDCe1QtEw46K5sxflouw,,,,,,,,,,shiny,,,,,,,,,,,,,,,,,,,,,,,,,,,,,,,,,,,,,,,,,left,1.1226,0,6,6,25,1,,,,,,,,,,,,,,
,,,,,,,,,,,BroNo,man,27,13-15h,2021-12-02_21h08.39.749,bachelor,2021.2.3,Win32,59.99880002,IwAR2wFWkhAttIX2us655vg4wXxSR46FU7qlyNXrNrDCe1QtEw46K5sxflouw,,,,,,,,,,diplomat,,,,,,,,,,,,,,,,,,,,,,,,,,,,,,,,,,,,,,,,,right,0.8246,0,7,7,20,1,,,,,,,,,,,,,,
,,,,,,,,,,,BroNo,man,27,13-15h,2021-12-02_21h08.39.749,bachelor,2021.2.3,Win32,59.99880002,IwAR2wFWkhAttIX2us655vg4wXxSR46FU7qlyNXrNrDCe1QtEw46K5sxflouw,,,,,,,,,,delirium,,,,,,,,,,,,,,,,,,,,,,,,,,,,,,,,,,,,,,,,,right,0.9449,0,8,8,7,1,,,,,,,,,,,,,,
,,,,,,,,,,,BroNo,man,27,13-15h,2021-12-02_21h08.39.749,bachelor,2021.2.3,Win32,59.99880002,IwAR2wFWkhAttIX2us655vg4wXxSR46FU7qlyNXrNrDCe1QtEw46K5sxflouw,,,,,,,,,,rocket,,,,,,,,,,,,,,,,,,,,,,,,,,,,,,,,,,,,,,,,,left,0.8726,0,9,9,15,1,,,,,,,,,,,,,,
,,,,,,,,,,,BroNo,man,27,13-15h,2021-12-02_21h08.39.749,bachelor,2021.2.3,Win32,59.99880002,IwAR2wFWkhAttIX2us655vg4wXxSR46FU7qlyNXrNrDCe1QtEw46K5sxflouw,,,,,,,,,,store,,,,,,,,,,,,,,,,,,,,,,,,,,,,,,,,,,,,,,,,,right,1.2554,0,10,10,8,1,,,,,,,,,,,,,,
,,,,,,,,,,,BroNo,man,27,13-15h,2021-12-02_21h08.39.749,bachelor,2021.2.3,Win32,59.99880002,IwAR2wFWkhAttIX2us655vg4wXxSR46FU7qlyNXrNrDCe1QtEw46K5sxflouw,,,,,,,,,,embassy,,,,,,,,,,,,,,,,,,,,,,,,,,,,,,,,,,,,,,,,,left,0.856,0,11,11,6,1,,,,,,,,,,,,,,
,,,,,,,,,,,BroNo,man,27,13-15h,2021-12-02_21h08.39.749,bachelor,2021.2.3,Win32,59.99880002,IwAR2wFWkhAttIX2us655vg4wXxSR46FU7qlyNXrNrDCe1QtEw46K5sxflouw,,,,,,,,,,businessman,,,,,,,,,,,,,,,,,,,,,,,,,,,,,,,,,,,,,,,,,left,0.7218,0,12,12,16,1,,,,,,,,,,,,,,
,,,,,,,,,,,BroNo,man,27,13-15h,2021-12-02_21h08.39.749,bachelor,2021.2.3,Win32,59.99880002,IwAR2wFWkhAttIX2us655vg4wXxSR46FU7qlyNXrNrDCe1QtEw46K5sxflouw,,,,,,,,,,handshake,,,,,,,,,,,,,,,,,,,,,,,,,,,,,,,,,,,,,,,,,left,0.7224,0,13,13,1,1,,,,,,,,,,,,,,
,,,,,,,,,,,BroNo,man,27,13-15h,2021-12-02_21h08.39.749,bachelor,2021.2.3,Win32,59.99880002,IwAR2wFWkhAttIX2us655vg4wXxSR46FU7qlyNXrNrDCe1QtEw46K5sxflouw,,,,,,,,,,politician,,,,,,,,,,,,,,,,,,,,,,,,,,,,,,,,,,,,,,,,,left,0.812,0,14,14,22,1,,,,,,,,,,,,,,
,,,,,,,,,,,BroNo,man,27,13-15h,2021-12-02_21h08.39.749,bachelor,2021.2.3,Win32,59.99880002,IwAR2wFWkhAttIX2us655vg4wXxSR46FU7qlyNXrNrDCe1QtEw46K5sxflouw,,,,,,,,,,clang,,,,,,,,,,,,,,,,,,,,,,,,,,,,,,,,,,,,,,,,,left,0.9886,0,15,15,13,1,,,,,,,,,,,,,,
,,,,,,,,,,,BroNo,man,27,13-15h,2021-12-02_21h08.39.749,bachelor,2021.2.3,Win32,59.99880002,IwAR2wFWkhAttIX2us655vg4wXxSR46FU7qlyNXrNrDCe1QtEw46K5sxflouw,,,,,,,,,,farm,,,,,,,,,,,,,,,,,,,,,,,,,,,,,,,,,,,,,,,,,left,1.4756,0,16,16,12,1,,,,,,,,,,,,,,
,,,,,,,,,,,BroNo,man,27,13-15h,2021-12-02_21h08.39.749,bachelor,2021.2.3,Win32,59.99880002,IwAR2wFWkhAttIX2us655vg4wXxSR46FU7qlyNXrNrDCe1QtEw46K5sxflouw,,,,,,,,,,nose,,,,,,,,,,,,,,,,,,,,,,,,,,,,,,,,,,,,,,,,,left,0.9228,0,17,17,26,1,,,,,,,,,,,,,,
,,,,,,,,,,,BroNo,man,27,13-15h,2021-12-02_21h08.39.749,bachelor,2021.2.3,Win32,59.99880002,IwAR2wFWkhAttIX2us655vg4wXxSR46FU7qlyNXrNrDCe1QtEw46K5sxflouw,,,,,,,,,,mouth,,,,,,,,,,,,,,,,,,,,,,,,,,,,,,,,,,,,,,,,,left,0.6065,0,18,18,24,1,,,,,,,,,,,,,,
,,,,,,,,,,,BroNo,man,27,13-15h,2021-12-02_21h08.39.749,bachelor,2021.2.3,Win32,59.99880002,IwAR2wFWkhAttIX2us655vg4wXxSR46FU7qlyNXrNrDCe1QtEw46K5sxflouw,,,,,,,,,,sled,,,,,,,,,,,,,,,,,,,,,,,,,,,,,,,,,,,,,,,,,right,1.4719,0,19,19,5,1,,,,,,,,,,,,,,
,,,,,,,,,,,BroNo,man,27,13-15h,2021-12-02_21h08.39.749,bachelor,2021.2.3,Win32,59.99880002,IwAR2wFWkhAttIX2us655vg4wXxSR46FU7qlyNXrNrDCe1QtEw46K5sxflouw,,,,,,,,,,actor,,,,,,,,,,,,,,,,,,,,,,,,,,,,,,,,,,,,,,,,,right,1.0553,0,20,20,23,1,,,,,,,,,,,,,,
,,,,,,,,,,,BroNo,man,27,13-15h,2021-12-02_21h08.39.749,bachelor,2021.2.3,Win32,59.99880002,IwAR2wFWkhAttIX2us655vg4wXxSR46FU7qlyNXrNrDCe1QtEw46K5sxflouw,,,,,,,,,,leg,,,,,,,,,,,,,,,,,,,,,,,,,,,,,,,,,,,,,,,,,left,0.7879,0,21,21,2,1,,,,,,,,,,,,,,
,,,,,,,,,,,BroNo,man,27,13-15h,2021-12-02_21h08.39.749,bachelor,2021.2.3,Win32,59.99880002,IwAR2wFWkhAttIX2us655vg4wXxSR46FU7qlyNXrNrDCe1QtEw46K5sxflouw,,,,,,,,,,jaw,,,,,,,,,,,,,,,,,,,,,,,,,,,,,,,,,,,,,,,,,left,0.855,0,22,22,0,1,,,,,,,,,,,,,,
,,,,,,,,,,,BroNo,man,27,13-15h,2021-12-02_21h08.39.749,bachelor,2021.2.3,Win32,59.99880002,IwAR2wFWkhAttIX2us655vg4wXxSR46FU7qlyNXrNrDCe1QtEw46K5sxflouw,,,,,,,,,,school,,,,,,,,,,,,,,,,,,,,,,,,,,,,,,,,,,,,,,,,,left,1.8392,0,23,23,10,1,,,,,,,,,,,,,,
,,,,,,,,,,,BroNo,man,27,13-15h,2021-12-02_21h08.39.749,bachelor,2021.2.3,Win32,59.99880002,IwAR2wFWkhAttIX2us655vg4wXxSR46FU7qlyNXrNrDCe1QtEw46K5sxflouw,,,,,,,,,,student,,,,,,,,,,,,,,,,,,,,,,,,,,,,,,,,,,,,,,,,,right,0.906,0,24,24,18,1,,,,,,,,,,,,,,
,,,,,,,,,,,BroNo,man,27,13-15h,2021-12-02_21h08.39.749,bachelor,2021.2.3,Win32,59.99880002,IwAR2wFWkhAttIX2us655vg4wXxSR46FU7qlyNXrNrDCe1QtEw46K5sxflouw,,,,,,,,,,ate,,,,,,,,,,,,,,,,,,,,,,,,,,,,,,,,,,,,,,,,,left,1.2048,0,25,25,4,1,,,,,,,,,,,,,,
,,,,,,,,,,,BroNo,man,27,13-15h,2021-12-02_21h08.39.749,bachelor,2021.2.3,Win32,59.99880002,IwAR2wFWkhAttIX2us655vg4wXxSR46FU7qlyNXrNrDCe1QtEw46K5sxflouw,,,,,,,,,,truck,,,,,,,,,,,,,,,,,,,,,,,,,,,,,,,,,,,,,,,,,right,0.9224,0,26,26,17,1,,,,,,,,,,,,,,
,,,,,,,,,,,BroNo,man,27,13-15h,2021-12-02_21h08.39.749,bachelor,2021.2.3,Win32,59.99880002,IwAR2wFWkhAttIX2us655vg4wXxSR46FU7qlyNXrNrDCe1QtEw46K5sxflouw,,,,,,,,,,soft,,,,,,,,,,,,,,,,,,,,,,,,,,,,,,,,,,,,,,,,,left,0.7598,0,27,27,11,1,,,,,,,,,,,,,,
,,,,,,,,,,,BroNo,man,27,13-15h,2021-12-02_21h08.39.749,bachelor,2021.2.3,Win32,59.99880002,IwAR2wFWkhAttIX2us655vg4wXxSR46FU7qlyNXrNrDCe1QtEw46K5sxflouw,,,,,,,,,,,,,,,,,,,,,,,,,,,,,,,,,,,,,,,,,,,,,,,,,,,,,,,,,,space,6.7332,6,13.5483,0,0,0,0,1,I felt excluded during the experiment.,,,,
,,,,,,,,,,,BroNo,man,27,13-15h,2021-12-02_21h08.39.749,bachelor,2021.2.3,Win32,59.99880002,IwAR2wFWkhAttIX2us655vg4wXxSR46FU7qlyNXrNrDCe1QtEw46K5sxflouw,,,,,,,,,,,,,,,,,,,,,,,,,,,,,,,,,,,,,,,,,,,,,,,,,,,,,,,,,,,,6,7.2221,0,1,1,3,1,I felt stressed during the experiment.,,,,
,,,,,,,,,,,BroNo,man,27,13-15h,2021-12-02_21h08.39.749,bachelor,2021.2.3,Win32,59.99880002,IwAR2wFWkhAttIX2us655vg4wXxSR46FU7qlyNXrNrDCe1QtEw46K5sxflouw,,,,,,,,,,,,,,,,,,,,,,,,,,,,,,,,,,,,,,,,,,,,,,,,,,,,,,,,,,,,7,10.1818,0,2,2,1,1,Negative feedback showed me that I had lower task competencies than the other participants.,,,,
,,,,,,,,,,,BroNo,man,27,13-15h,2021-12-02_21h08.39.749,bachelor,2021.2.3,Win32,59.99880002,IwAR2wFWkhAttIX2us655vg4wXxSR46FU7qlyNXrNrDCe1QtEw46K5sxflouw,,,,,,,,,,,,,,,,,,,,,,,,,,,,,,,,,,,,,,,,,,,,,,,,,,,,,,,,,,,,1,3.8996,0,3,3,2,1,I felt alone during the experiment.,,,,
,,,,,,,,,,,BroNo,man,27,13-15h,2021-12-02_21h08.39.749,bachelor,2021.2.3,Win32,59.99880002,IwAR2wFWkhAttIX2us655vg4wXxSR46FU7qlyNXrNrDCe1QtEw46K5sxflouw,,,,,,,,,,,,,,,,,,,,,,,,,,,,,,,,,,,,,,,,,,,,,,,,,,,,,,,,,,,,,,,,,,,,space,29.148,space,5.1983
