"","Word","key_resp_17.keys","key_resp_17.rt","key_resp_13.keys","key_resp_13.rt","trials_5.thisRepN","trials_5.thisTrialN","trials_5.thisN","trials_5.thisIndex","trials_5.ran","Text","Condition","participant","Gender*","Age*","Estimated hours since last sleep*","date","expName","psychopyVersion","OS","frameRate","key_resp_2.keys","key_resp_2.rt","response1","key_resp_11.rt","trials_6.thisRepN","trials_6.thisTrialN","trials_6.thisN","trials_6.thisIndex","trials_6.ran","key_resp_3.keys","key_resp_3.rt","key_resp_9.keys","key_resp_9.rt","trials_2.thisRepN","trials_2.thisTrialN","trials_2.thisN","trials_2.thisIndex","trials_2.ran","Stimuli","keyrespp.keys","keyrespp.rt","key_resp_4.keys","key_resp_4.rt","trials.thisRepN","trials.thisTrialN","trials.thisN","trials.thisIndex","trials.ran","Response","Congr","RightAns","key_resp_8.keys","key_resp_8.rt","key_resp_10.keys","key_resp_10.rt","trials_4.thisRepN","trials_4.thisTrialN","trials_4.thisN","trials_4.thisIndex","trials_4.ran","key_resp_14.keys","key_resp_14.rt","trials_7.thisRepN","trials_7.thisTrialN","trials_7.thisN","trials_7.thisIndex","trials_7.ran","key_resp_5.keys","key_resp_5.rt","response2","key_resp_12.rt","trials_3.thisRepN","trials_3.thisTrialN","trials_3.thisN","trials_3.thisIndex","trials_3.ran","key_resp_6.keys","key_resp_6.rt","key_resp_15.keys","key_resp_15.rt","socialexc.thisRepN","socialexc.thisTrialN","socialexc.thisN","socialexc.thisIndex","socialexc.ran","Question","key_resp_7.keys","key_resp_7.rt","key_resp_16.keys","key_resp_16.rt","fbclid","key_resp_17.keys;key_resp_17.rt;key_resp_13.keys;key_resp_13.rt;trials_5.thisRepN;trials_5.thisTrialN;trials_5.thisN;trials_5.thisIndex;trials_5.ran;Text;Condition;participant;Gender*;Age*;Estimated hours since last sleep*;date;expName;psychopyVersion;OS;frameRate;fbclid;key_resp_2.keys;key_resp_2.rt;key_resp_11.keys;key_resp_11.rt;trials_6.thisRepN;trials_6.thisTrialN;trials_6.thisN;trials_6.thisIndex;trials_6.ran;Word;key_resp_3.keys;key_resp_3.rt;key_resp_9.keys;trials_2.thisRepN;trials_2.thisTrialN;trials_2.thisN;trials_2.thisIndex;trials_2.ran;Stimuli;key_resp_9.rt;keyrespp.keys;keyrespp.rt;key_resp_4.keys;trials.thisRepN;trials.thisTrialN;trials.thisN;trials.thisIndex;trials.ran;Response;Congr;RightAns;key_resp_4.rt;key_resp_8.keys;key_resp_8.rt;key_resp_10.keys;trials_4.thisRepN;trials_4.thisTrialN;trials_4.thisN;trials_4.thisIndex;trials_4.ran;key_resp_10.rt;key_resp_14.keys;key_resp_14.rt;trials_7.thisRepN;trials_7.thisTrialN;trials_7.thisN;trials_7.thisIndex;trials_7.ran;key_resp_5.keys;key_resp_5.rt;key_resp_12.keys;key_resp_12.rt;trials_3.thisRepN;trials_3.thisTrialN;trials_3.thisN;trials_3.thisIndex;trials_3.ran;key_resp_6.keys;key_resp_6.rt;key_resp_15.keys;key_resp_15.rt;socialexc.thisRepN;socialexc.thisTrialN;socialexc.thisN;socialexc.thisIndex;socialexc.ran;Question;key_resp_7.keys;key_resp_7.rt;key_resp_16.keys;key_resp_16.rt","type","Score","factor","Score_scaled","sentiment1","sentiment2","scores_what","trial1Scores","trial2Scores","t1Score_scaled","t2Score_scaled"
"1","actor",NA,NA,NA,NA,NA,NA,NA,NA,NA,NA,"0","tITnv3Z","woman",21,"1-3h","2021-12-06_10h51.55.444","bachelor","2021.2.3","MacIntel",60.0024001,NA,NA,NA,NA,NA,NA,NA,NA,NA,NA,NA,NA,NA,NA,NA,NA,NA,NA,NA,NA,NA,NA,NA,NA,NA,NA,NA,NA,NA,NA,NA,NA,NA,NA,NA,NA,NA,NA,NA,NA,NA,NA,NA,NA,NA,NA,NA,NA,NA,1,0.7674,0,22,22,23,1,NA,NA,NA,NA,NA,NA,NA,NA,NA,NA,NA,NA,NA,NA,"IwAR2b37PvDE92fbWKCZSags7V8ETFVid47-yhywKOffvfuWcT_9Kwk0wFAuI",NA,"human",2.96374747010422,1,0.916001310900064,NA,0.818182005058487,0.823176896419957,NA,2.96374747010422,NA,0.818182005058487
"2","actor",NA,NA,NA,NA,NA,NA,NA,NA,NA,NA,"1","ckBIX57","woman",32,"4-6h","2021-12-04_20h54.45.847","bachelor","2021.2.3","MacIntel",58.82352941,NA,NA,NA,NA,NA,NA,NA,NA,NA,NA,NA,NA,NA,NA,NA,NA,NA,NA,NA,NA,NA,NA,NA,NA,NA,NA,NA,NA,NA,NA,NA,NA,NA,NA,NA,NA,NA,NA,NA,NA,NA,NA,NA,NA,NA,NA,NA,NA,NA,-1,0.796,0,15,15,23,1,NA,NA,NA,NA,NA,NA,NA,NA,NA,NA,NA,NA,NA,NA,"IwAR1XnQd6Ia16RXHb8MRvMwbxGnGWK4DGcnByoOoi_uEyfvFe2aaF7JGEQX8",NA,"human",2.96374747010422,1,0.916001310900064,NA,-0.818182005058487,0.823176896419957,NA,2.96374747010422,NA,0.818182005058487
"3","actor",NA,NA,NA,NA,NA,NA,NA,NA,NA,NA,"1","i5cHQii","man",29,"10-12h","2021-12-12_19h50.13.908","bachelor","2021.2.3","MacIntel",59.99520038,NA,NA,NA,NA,NA,NA,NA,NA,NA,NA,NA,NA,NA,NA,NA,NA,NA,NA,NA,NA,NA,NA,NA,NA,NA,NA,NA,NA,NA,NA,NA,NA,NA,NA,NA,NA,NA,NA,NA,NA,NA,NA,NA,NA,NA,NA,NA,NA,NA,-1,1.0485,0,11,11,23,1,NA,NA,NA,NA,NA,NA,NA,NA,NA,NA,NA,NA,NA,NA,"IwAR3vCExL7aXYkCwXCqqHvy-ugvf5lrmEJP15zVtYiR2S6nevJHXbXgMcXro",NA,"human",2.96374747010422,1,0.916001310900064,NA,-0.818182005058487,0.823176896419957,NA,2.96374747010422,NA,0.818182005058487
"4","actor",NA,NA,NA,NA,NA,NA,NA,NA,NA,NA,"0","DwugyIr","woman",18,"10-12h","2021-12-01_17h10.38.417","bachelor","2021.2.3","Win32",59.96641881,NA,NA,NA,NA,NA,NA,NA,NA,NA,NA,NA,NA,NA,NA,NA,NA,NA,NA,NA,NA,NA,NA,NA,NA,NA,NA,NA,NA,NA,NA,NA,NA,NA,NA,NA,NA,NA,NA,NA,NA,NA,NA,NA,NA,NA,NA,NA,NA,NA,-1,0.7846,0,17,17,23,1,NA,NA,NA,NA,NA,NA,NA,NA,NA,NA,NA,NA,NA,NA,"IwAR30-zn7PZY6bv_IRc0y2CLUXBFjvoh0_DFK33PzhVQ74YXmRt2v1VZloQE",NA,"human",2.96374747010422,1,0.916001310900064,NA,-0.818182005058487,0.823176896419957,NA,2.96374747010422,NA,0.818182005058487
"5","actor",NA,NA,NA,NA,NA,NA,NA,NA,NA,NA,"0","JVY7jCo","woman",22,"1-3h","2021-12-02_09h47.18.198","bachelor","2021.2.3","Win32",59.9268892,NA,NA,NA,NA,NA,NA,NA,NA,NA,NA,NA,NA,NA,NA,NA,NA,NA,NA,NA,NA,NA,NA,NA,NA,NA,NA,NA,NA,NA,NA,NA,NA,NA,NA,NA,NA,NA,NA,NA,NA,NA,NA,NA,NA,NA,NA,NA,NA,NA,1,0.8388,0,17,17,23,1,NA,NA,NA,NA,NA,NA,NA,NA,NA,NA,NA,NA,NA,NA,"IwAR1d1TKlMt1yzBDY5woBuInyc2XF-19_z_l9N1cMfEXg579fCM0azRbEP2k",NA,"human",2.96374747010422,1,0.916001310900064,NA,0.818182005058487,0.823176896419957,NA,2.96374747010422,NA,0.818182005058487
"6","actor",NA,NA,NA,NA,NA,NA,NA,NA,NA,NA,"0","BgAtUlU","man",28,"4-6h","2021-12-12_22h00.21.957","bachelor","2021.2.3","Win32",62.32859636,NA,NA,NA,NA,NA,NA,NA,NA,NA,NA,NA,NA,NA,NA,NA,NA,NA,NA,NA,NA,NA,NA,NA,NA,NA,NA,NA,NA,NA,NA,NA,NA,NA,NA,NA,NA,NA,NA,NA,NA,NA,NA,NA,NA,NA,NA,NA,NA,NA,1,1.1096,0,23,23,23,1,NA,NA,NA,NA,NA,NA,NA,NA,NA,NA,NA,NA,NA,NA,"IwAR1gvXC1ZrZBSbECAGy5SRDqcszzcH-AaJ9cqEbCeBCZMWrn8WkBKoUzQAI",NA,"human",2.96374747010422,1,0.916001310900064,NA,0.818182005058487,0.823176896419957,NA,2.96374747010422,NA,0.818182005058487
"7","actor",NA,NA,NA,NA,NA,NA,NA,NA,NA,NA,"0","jYhj9yS","man",20,"10-12h","2021-12-07_19h19.21.114","bachelor","2021.2.3","Win32",59.93407252,NA,NA,NA,NA,NA,NA,NA,NA,NA,NA,NA,NA,NA,NA,NA,NA,NA,NA,NA,NA,NA,NA,NA,NA,NA,NA,NA,NA,NA,NA,NA,NA,NA,NA,NA,NA,NA,NA,NA,NA,NA,NA,NA,NA,NA,NA,NA,NA,NA,1,1.7321,0,17,17,23,1,NA,NA,NA,NA,NA,NA,NA,NA,NA,NA,NA,NA,NA,NA,"IwAR3hMbX0hdVyF1MsQbbo-rjMO46g-dm1Sys-XXHoE16wUwHHlUIfFau-ICk",NA,"human",2.96374747010422,1,0.916001310900064,NA,0.818182005058487,0.823176896419957,NA,2.96374747010422,NA,0.818182005058487
"8","actor",NA,NA,NA,NA,NA,NA,NA,NA,NA,NA,"0","Wv9bebz","woman",21,"13-15h","2021-12-01_20h47.58.802","bachelor","2021.2.3","MacIntel",71.42857143,NA,NA,NA,NA,NA,NA,NA,NA,NA,NA,NA,NA,NA,NA,NA,NA,NA,NA,NA,NA,NA,NA,NA,NA,NA,NA,NA,NA,NA,NA,NA,NA,NA,NA,NA,NA,NA,NA,NA,NA,NA,NA,NA,NA,NA,NA,NA,NA,NA,1,0.815,0,26,26,23,1,NA,NA,NA,NA,NA,NA,NA,NA,NA,NA,NA,NA,NA,NA,"IwAR0fIy4rXJbTyGk1qvhlqIHko2JwZHUIjMwkfZhFNfNAb7iLftWId5prvy8",NA,"human",2.96374747010422,1,0.916001310900064,NA,0.818182005058487,0.823176896419957,NA,2.96374747010422,NA,0.818182005058487
"9","actor",NA,NA,NA,NA,NA,NA,NA,NA,NA,NA,"0","AZ3Gg7G","man",24,"4-6h","2021-12-11_18h10.46.274","bachelor","2021.2.3","Win32",60.29181237,NA,NA,NA,NA,NA,NA,NA,NA,NA,NA,NA,NA,NA,NA,NA,NA,NA,NA,NA,NA,NA,NA,NA,NA,NA,NA,NA,NA,NA,NA,NA,NA,NA,NA,NA,NA,NA,NA,NA,NA,NA,NA,NA,NA,NA,NA,NA,NA,NA,1,1.2445,0,22,22,23,1,NA,NA,NA,NA,NA,NA,NA,NA,NA,NA,NA,NA,NA,NA,"IwAR2Q7jZKIq7PnqEC-VFvwAdnbxakit3fX_VvYV9IJgwedJLOMhHyzayGzxI",NA,"human",2.96374747010422,1,0.916001310900064,NA,0.818182005058487,0.823176896419957,NA,2.96374747010422,NA,0.818182005058487
"10","actor",NA,NA,NA,NA,NA,NA,NA,NA,NA,NA,"0","5LsI3OC","woman",18,"10-12h","2021-12-01_17h10.38.417","bachelor","2021.2.3","Win32",59.96641881,NA,NA,NA,NA,NA,NA,NA,NA,NA,NA,NA,NA,NA,NA,NA,NA,NA,NA,NA,NA,NA,NA,NA,NA,NA,NA,NA,NA,NA,NA,NA,NA,NA,NA,NA,NA,NA,NA,NA,NA,NA,NA,NA,NA,NA,NA,NA,NA,NA,-1,0.7846,0,17,17,23,1,NA,NA,NA,NA,NA,NA,NA,NA,NA,NA,NA,NA,NA,NA,"IwAR30-zn7PZY6bv_IRc0y2CLUXBFjvoh0_DFK33PzhVQ74YXmRt2v1VZloQE",NA,"human",2.96374747010422,1,0.916001310900064,NA,-0.818182005058487,0.823176896419957,NA,2.96374747010422,NA,0.818182005058487
"11","actor",NA,NA,NA,NA,NA,NA,NA,NA,NA,NA,"1","0DYUKyQ","woman",33,"7-9h","2021-12-20_14h14.37.099","bachelor","2021.2.3","Win32",59.92329818,NA,NA,NA,NA,NA,NA,NA,NA,NA,NA,NA,NA,NA,NA,NA,NA,NA,NA,NA,NA,NA,NA,NA,NA,NA,NA,NA,NA,NA,NA,NA,NA,NA,NA,NA,NA,NA,NA,NA,NA,NA,NA,NA,NA,NA,NA,NA,NA,NA,-1,1.5353,0,21,21,23,1,NA,NA,NA,NA,NA,NA,NA,NA,NA,NA,NA,NA,NA,NA,NA,NA,"human",2.96374747010422,1,0.916001310900064,NA,-0.818182005058487,0.823176896419957,NA,2.96374747010422,NA,0.818182005058487
"12","actor",NA,NA,NA,NA,NA,NA,NA,NA,NA,NA,"0","FcQYQIm","man",24,"7-9h","2021-12-06_20h23.58.551","bachelor","2021.2.3","MacIntel",58.82352941,NA,NA,NA,NA,NA,NA,NA,NA,NA,NA,NA,NA,NA,NA,NA,NA,NA,NA,NA,NA,NA,NA,NA,NA,NA,NA,NA,NA,NA,NA,NA,NA,NA,NA,NA,NA,NA,NA,NA,NA,NA,NA,NA,NA,NA,NA,NA,NA,NA,1,2.719,0,9,9,23,1,NA,NA,NA,NA,NA,NA,NA,NA,NA,NA,NA,NA,NA,NA,"IwAR08BE4J92EyYVh4OdBtUtbPLHO2nJ7VIy3dZEFJss6joWhAPq22kb2nxKc",NA,"human",2.96374747010422,1,0.916001310900064,NA,0.818182005058487,0.823176896419957,NA,2.96374747010422,NA,0.818182005058487
"13","actor",NA,NA,NA,NA,NA,NA,NA,NA,NA,NA,"1","oqaT2rf","man",24,"10-12h","2021-12-02_20h49.38.753","bachelor","2021.2.3","Win32",60.0132029,NA,NA,NA,NA,NA,NA,NA,NA,NA,NA,NA,NA,NA,NA,NA,NA,NA,NA,NA,NA,NA,NA,NA,NA,NA,NA,NA,NA,NA,NA,NA,NA,NA,NA,NA,NA,NA,NA,NA,NA,NA,NA,NA,NA,NA,NA,NA,NA,NA,-1,0.7046,0,4,4,23,1,NA,NA,NA,NA,NA,NA,NA,NA,NA,NA,NA,NA,NA,NA,"IwAR2QXWwh8gZK1koYfP-KWOSWoIu4Ii1ih1T5WzlYDBDafJno2SPmhK0a36w",NA,"human",2.96374747010422,1,0.916001310900064,NA,-0.818182005058487,0.823176896419957,NA,2.96374747010422,NA,0.818182005058487
"14","actor",NA,NA,NA,NA,NA,NA,NA,NA,NA,NA,"1","wbVg3iX","woman",24,"4-6h","2021-12-04_12h48.41.699","bachelor","2021.2.3","Win32",59.69080165,NA,NA,NA,NA,NA,NA,NA,NA,NA,NA,NA,NA,NA,NA,NA,NA,NA,NA,NA,NA,NA,NA,NA,NA,NA,NA,NA,NA,NA,NA,NA,NA,NA,NA,NA,NA,NA,NA,NA,NA,NA,NA,NA,NA,NA,NA,NA,NA,NA,-1,1.3175,0,22,22,23,1,NA,NA,NA,NA,NA,NA,NA,NA,NA,NA,NA,NA,NA,NA,"IwAR1U9sv7jt6-VzaoK-jLrG5svuDWOPsE4OrmrlNSodsVR0DslIWgxoNfjnw",NA,"human",2.96374747010422,1,0.916001310900064,NA,-0.818182005058487,0.823176896419957,NA,2.96374747010422,NA,0.818182005058487
"15","actor",NA,NA,NA,NA,NA,NA,NA,NA,NA,NA,"0","ezKRId9","woman",35,"7-9h","2021-12-18_08h42.56.536","bachelor","2021.2.3","Win32",60.70908208,NA,NA,NA,NA,NA,NA,NA,NA,NA,NA,NA,NA,NA,NA,NA,NA,NA,NA,NA,NA,NA,NA,NA,NA,NA,NA,NA,NA,NA,NA,NA,NA,NA,NA,NA,NA,NA,NA,NA,NA,NA,NA,NA,NA,NA,NA,NA,NA,NA,-1,1.3413,0,6,6,23,1,NA,NA,NA,NA,NA,NA,NA,NA,NA,NA,NA,NA,NA,NA,"IwAR2y5zX-biLucKujY29B_pMPr-qJWH8yualuXXoON_tRCg637kR1zjPuUhw",NA,"human",2.96374747010422,1,0.916001310900064,NA,-0.818182005058487,0.823176896419957,NA,2.96374747010422,NA,0.818182005058487
"16","actor",NA,NA,NA,NA,NA,NA,NA,NA,NA,NA,"0","0VxhYv0","woman",55,"13-15h","2021-12-01_18h17.01.983","bachelor","2021.2.3","Win32",59.97720866,NA,NA,NA,NA,NA,NA,NA,NA,NA,NA,NA,NA,NA,NA,NA,NA,NA,NA,NA,NA,NA,NA,NA,NA,NA,NA,NA,NA,NA,NA,NA,NA,NA,NA,NA,NA,NA,NA,NA,NA,NA,NA,NA,NA,NA,NA,NA,NA,NA,1,1.98,0,14,14,23,1,NA,NA,NA,NA,NA,NA,NA,NA,NA,NA,NA,NA,NA,NA,"IwAR17qf7l86_vGeALSJIKtFoHMA7mopAJZoSjWr-_cb06VjDcpPVyj6Sd0BM",NA,"human",2.96374747010422,1,0.916001310900064,NA,0.818182005058487,0.823176896419957,NA,2.96374747010422,NA,0.818182005058487
"17","actor",NA,NA,NA,NA,NA,NA,NA,NA,NA,NA,"1","0gnVEeX","man",32,"10-12h","2021-12-04_20h31.09.158","bachelor","2021.2.3","MacIntel",58.82352941,NA,NA,NA,NA,NA,NA,NA,NA,NA,NA,NA,NA,NA,NA,NA,NA,NA,NA,NA,NA,NA,NA,NA,NA,NA,NA,NA,NA,NA,NA,NA,NA,NA,NA,NA,NA,NA,NA,NA,NA,NA,NA,NA,NA,NA,NA,NA,NA,NA,1,2.816,0,18,18,23,1,NA,NA,NA,NA,NA,NA,NA,NA,NA,NA,NA,NA,NA,NA,"IwAR3y99_qi9ZkahrWl2gxbFf1IxdizgmXWHn01GjRv4YStcN-ylfQ7-olS5w",NA,"human",2.96374747010422,1,0.916001310900064,NA,0.818182005058487,0.823176896419957,NA,2.96374747010422,NA,0.818182005058487
"18","actor",NA,NA,NA,NA,NA,NA,NA,NA,NA,NA,"1","f8Dzr4d","man",25,"13-15h","2021-12-06_20h12.48.615","bachelor","2021.2.3","Win32",121.0360687,NA,NA,NA,NA,NA,NA,NA,NA,NA,NA,NA,NA,NA,NA,NA,NA,NA,NA,NA,NA,NA,NA,NA,NA,NA,NA,NA,NA,NA,NA,NA,NA,NA,NA,NA,NA,NA,NA,NA,NA,NA,NA,NA,NA,NA,NA,NA,NA,NA,-1,0.0131,0,14,14,23,1,NA,NA,NA,NA,NA,NA,NA,NA,NA,NA,NA,NA,NA,NA,"IwAR3S7lrNNfoTUTMyWpqksg8nYfqloK-NxG4GDfI-wZWXqf2-0zXkfG9A7s8",NA,"human",2.96374747010422,1,0.916001310900064,NA,-0.818182005058487,0.823176896419957,NA,2.96374747010422,NA,0.818182005058487
"19","actor",NA,NA,NA,NA,NA,NA,NA,NA,NA,NA,"0","DXfT4CF","woman",33,"4-6h","2021-12-08_09h36.04.523","bachelor","2021.2.3","Win32",60.73858115,NA,NA,NA,NA,NA,NA,NA,NA,NA,NA,NA,NA,NA,NA,NA,NA,NA,NA,NA,NA,NA,NA,NA,NA,NA,NA,NA,NA,NA,NA,NA,NA,NA,NA,NA,NA,NA,NA,NA,NA,NA,NA,NA,NA,NA,NA,NA,NA,NA,1,0.828,0,20,20,23,1,NA,NA,NA,NA,NA,NA,NA,NA,NA,NA,NA,NA,NA,NA,NA,NA,"human",2.96374747010422,1,0.916001310900064,NA,0.818182005058487,0.823176896419957,NA,2.96374747010422,NA,0.818182005058487
"20","actor",NA,NA,NA,NA,NA,NA,NA,NA,NA,NA,"1","s0995fA","man",34,"1-3h","2021-12-02_06h42.00.524","bachelor","2021.2.3","Win32",60.07810153,NA,NA,NA,NA,NA,NA,NA,NA,NA,NA,NA,NA,NA,NA,NA,NA,NA,NA,NA,NA,NA,NA,NA,NA,NA,NA,NA,NA,NA,NA,NA,NA,NA,NA,NA,NA,NA,NA,NA,NA,NA,NA,NA,NA,NA,NA,NA,NA,NA,1,3.2491,0,15,15,23,1,NA,NA,NA,NA,NA,NA,NA,NA,NA,NA,NA,NA,NA,NA,"IwAR3pSigNbLrHoKkV4D12BnHrO_Vuq-0xay_Bg_EjS5V5AVDe9mklrR_J1Vo",NA,"human",2.96374747010422,1,0.916001310900064,NA,0.818182005058487,0.823176896419957,NA,2.96374747010422,NA,0.818182005058487
"21","actor",NA,NA,NA,NA,NA,NA,NA,NA,NA,NA,"1","4kZA5NH","other",22,"4-6h","2021-12-08_14h02.11.847","bachelor","2021.2.3","Win32",60.07088364,NA,NA,NA,NA,NA,NA,NA,NA,NA,NA,NA,NA,NA,NA,NA,NA,NA,NA,NA,NA,NA,NA,NA,NA,NA,NA,NA,NA,NA,NA,NA,NA,NA,NA,NA,NA,NA,NA,NA,NA,NA,NA,NA,NA,NA,NA,NA,NA,NA,-1,0.9644,0,23,23,23,1,NA,NA,NA,NA,NA,NA,NA,NA,NA,NA,NA,NA,NA,NA,NA,NA,"human",2.96374747010422,1,0.916001310900064,NA,-0.818182005058487,0.823176896419957,NA,2.96374747010422,NA,0.818182005058487
"22","actor",NA,NA,NA,NA,NA,NA,NA,NA,NA,NA,"1","vIpIxWv","man",32,"13-15h","2021-12-12_20h42.26.149","bachelor","2021.2.3","Win32",60.20107158,NA,NA,NA,NA,NA,NA,NA,NA,NA,NA,NA,NA,NA,NA,NA,NA,NA,NA,NA,NA,NA,NA,NA,NA,NA,NA,NA,NA,NA,NA,NA,NA,NA,NA,NA,NA,NA,NA,NA,NA,NA,NA,NA,NA,NA,NA,NA,NA,NA,-1,1,0,8,8,23,1,NA,NA,NA,NA,NA,NA,NA,NA,NA,NA,NA,NA,NA,NA,NA,NA,"human",2.96374747010422,1,0.916001310900064,NA,-0.818182005058487,0.823176896419957,NA,2.96374747010422,NA,0.818182005058487
"23","actor",NA,NA,NA,NA,NA,NA,NA,NA,NA,NA,"1","MCbeohB","man",22,"4-6h","2021-12-01_14h15.27.541","bachelor","2021.2.3","Win32",60.91246878,NA,NA,NA,NA,NA,NA,NA,NA,NA,NA,NA,NA,NA,NA,NA,NA,NA,NA,NA,NA,NA,NA,NA,NA,NA,NA,NA,NA,NA,NA,NA,NA,NA,NA,NA,NA,NA,NA,NA,NA,NA,NA,NA,NA,NA,NA,NA,NA,NA,-1,1.1313,0,1,1,23,1,NA,NA,NA,NA,NA,NA,NA,NA,NA,NA,NA,NA,NA,NA,"IwAR3DabSM8ZhQHYjBm2vYXYKA36WBN4UsyQ7BdumCsNE5xC1DF9JtIZNo0w4",NA,"human",2.96374747010422,1,0.916001310900064,NA,-0.818182005058487,0.823176896419957,NA,2.96374747010422,NA,0.818182005058487
"24","actor",NA,NA,NA,NA,NA,NA,NA,NA,NA,NA,"0","p9QcJ5B","woman",23,"4-6h","2021-12-06_13h25.11.791","bachelor","2021.2.3","MacIntel",60.0024001,NA,NA,NA,NA,NA,NA,NA,NA,NA,NA,NA,NA,NA,NA,NA,NA,NA,NA,NA,NA,NA,NA,NA,NA,NA,NA,NA,NA,NA,NA,NA,NA,NA,NA,NA,NA,NA,NA,NA,NA,NA,NA,NA,NA,NA,NA,NA,NA,NA,-1,1.333,0,8,8,23,1,NA,NA,NA,NA,NA,NA,NA,NA,NA,NA,NA,NA,NA,NA,NA,NA,"human",2.96374747010422,1,0.916001310900064,NA,-0.818182005058487,0.823176896419957,NA,2.96374747010422,NA,0.818182005058487
"25","actor",NA,NA,NA,NA,NA,NA,NA,NA,NA,NA,"0","QGVynMl","woman",28,"10-12h","2021-12-12_22h34.04.519","bachelor","2021.2.3","MacIntel",59.99880002,NA,NA,NA,NA,NA,NA,NA,NA,NA,NA,NA,NA,NA,NA,NA,NA,NA,NA,NA,NA,NA,NA,NA,NA,NA,NA,NA,NA,NA,NA,NA,NA,NA,NA,NA,NA,NA,NA,NA,NA,NA,NA,NA,NA,NA,NA,NA,NA,NA,-1,1.4746,0,7,7,23,1,NA,NA,NA,NA,NA,NA,NA,NA,NA,NA,NA,NA,NA,NA,"IwAR1GM1Hb5NvVLdUtLLXx6_cp4lZKlg5jemhIrj8nJ5r0UGBGy7rKYQAj_Us",NA,"human",2.96374747010422,1,0.916001310900064,NA,-0.818182005058487,0.823176896419957,NA,2.96374747010422,NA,0.818182005058487
"26","actor",NA,NA,NA,NA,NA,NA,NA,NA,NA,NA,"1","47ET5VW","man",62,"13-15h","2021-12-01_19h27.11.254","bachelor","2021.2.3","Linux x86_64",60.24096386,NA,NA,NA,NA,NA,NA,NA,NA,NA,NA,NA,NA,NA,NA,NA,NA,NA,NA,NA,NA,NA,NA,NA,NA,NA,NA,NA,NA,NA,NA,NA,NA,NA,NA,NA,NA,NA,NA,NA,NA,NA,NA,NA,NA,NA,NA,NA,NA,NA,-1,1.187,0,17,17,23,1,NA,NA,NA,NA,NA,NA,NA,NA,NA,NA,NA,NA,NA,NA,"IwAR0tjWKiBxmHLcYRcP0SeJ-U7zvS610UMRRXS4iJiq3FGl7xf4F0rqWTfgo",NA,"human",2.96374747010422,1,0.916001310900064,NA,-0.818182005058487,0.823176896419957,NA,2.96374747010422,NA,0.818182005058487
"27","actor",NA,NA,NA,NA,NA,NA,NA,NA,NA,NA,"1","fzz8ygr","man",26,"16-18h","2021-12-03_21h15.37.122","bachelor","2021.2.3","Win32",59.97001499,NA,NA,NA,NA,NA,NA,NA,NA,NA,NA,NA,NA,NA,NA,NA,NA,NA,NA,NA,NA,NA,NA,NA,NA,NA,NA,NA,NA,NA,NA,NA,NA,NA,NA,NA,NA,NA,NA,NA,NA,NA,NA,NA,NA,NA,NA,NA,NA,NA,-1,5.281,0,10,10,23,1,NA,NA,NA,NA,NA,NA,NA,NA,NA,NA,NA,NA,NA,NA,"IwAR17Lusyd9utx4WzBryBumfKoHJdoNPWIBJiLZ5sTws4ihTeQKsMUorjwHs",NA,"human",2.96374747010422,1,0.916001310900064,NA,-0.818182005058487,0.823176896419957,NA,2.96374747010422,NA,0.818182005058487
"28","actor",NA,NA,NA,NA,NA,NA,NA,NA,NA,NA,"1","8nSGw4u","man",26,"1-3h","2021-12-06_09h54.23.116","bachelor","2021.2.3","MacIntel",76.92307692,NA,NA,NA,NA,NA,NA,NA,NA,NA,NA,NA,NA,NA,NA,NA,NA,NA,NA,NA,NA,NA,NA,NA,NA,NA,NA,NA,NA,NA,NA,NA,NA,NA,NA,NA,NA,NA,NA,NA,NA,NA,NA,NA,NA,NA,NA,NA,NA,NA,-1,1.437,0,23,23,23,1,NA,NA,NA,NA,NA,NA,NA,NA,NA,NA,NA,NA,NA,NA,"IwAR150sIen65aU5-p66bogaTJxcS7EVsnNekNCpDp4woRLPco0W738Mop-Dw",NA,"human",2.96374747010422,1,0.916001310900064,NA,-0.818182005058487,0.823176896419957,NA,2.96374747010422,NA,0.818182005058487
"29","actor",NA,NA,NA,NA,NA,NA,NA,NA,NA,NA,"0","b1IodjT","woman",24,"7-9h","2021-12-01_14h36.54.865","bachelor","2021.2.3","Win32",59.59475566,NA,NA,NA,NA,NA,NA,NA,NA,NA,NA,NA,NA,NA,NA,NA,NA,NA,NA,NA,NA,NA,NA,NA,NA,NA,NA,NA,NA,NA,NA,NA,NA,NA,NA,NA,NA,NA,NA,NA,NA,NA,NA,NA,NA,NA,NA,NA,NA,NA,-1,2.3858,0,9,9,23,1,NA,NA,NA,NA,NA,NA,NA,NA,NA,NA,NA,NA,NA,NA,"IwAR3yLSyi89beHyCf_cfZaWvbm-miesleX5fER5oKj6TyDyIddQJS753WqGo",NA,"human",2.96374747010422,1,0.916001310900064,NA,-0.818182005058487,0.823176896419957,NA,2.96374747010422,NA,0.818182005058487
"30","actor",NA,NA,NA,NA,NA,NA,NA,NA,NA,NA,"1","HZp1cq0","woman",21,"7-9h","2021-12-03_17h28.33.208","bachelor","2021.2.3","MacIntel",60.0024001,NA,NA,NA,NA,NA,NA,NA,NA,NA,NA,NA,NA,NA,NA,NA,NA,NA,NA,NA,NA,NA,NA,NA,NA,NA,NA,NA,NA,NA,NA,NA,NA,NA,NA,NA,NA,NA,NA,NA,NA,NA,NA,NA,NA,NA,NA,NA,NA,NA,-1,1.7494,0,27,27,23,1,NA,NA,NA,NA,NA,NA,NA,NA,NA,NA,NA,NA,NA,NA,"IwAR34o4hFglqOf5qXH5XZv9Oee1Atpp5NPMmnwmP9_R6x9avrLQti2Cuqt_Y",NA,"human",2.96374747010422,1,0.916001310900064,NA,-0.818182005058487,0.823176896419957,NA,2.96374747010422,NA,0.818182005058487
"31","actor",NA,NA,NA,NA,NA,NA,NA,NA,NA,NA,"1","HHBgo2G","woman",22,"1-3h","2021-12-03_11h04.32.672","bachelor","2021.2.3","MacIntel",30.00120005,NA,NA,NA,NA,NA,NA,NA,NA,NA,NA,NA,NA,NA,NA,NA,NA,NA,NA,NA,NA,NA,NA,NA,NA,NA,NA,NA,NA,NA,NA,NA,NA,NA,NA,NA,NA,NA,NA,NA,NA,NA,NA,NA,NA,NA,NA,NA,NA,NA,1,4.0693,0,18,18,23,1,NA,NA,NA,NA,NA,NA,NA,NA,NA,NA,NA,NA,NA,NA,"IwAR0o3eiIlnvz5EHBbfqJQmODO2Dw_NiUT4VAvKbD3V8DH5-ZWROQ0FoOZfU",NA,"human",2.96374747010422,1,0.916001310900064,NA,0.818182005058487,0.823176896419957,NA,2.96374747010422,NA,0.818182005058487
"32","actor",NA,NA,NA,NA,NA,NA,NA,NA,NA,NA,"1","zSVhIjL","man",22,"10-12h","2021-12-18_20h07.54.328","bachelor","2021.2.3","Win32",60.14675809,NA,NA,NA,NA,NA,NA,NA,NA,NA,NA,NA,NA,NA,NA,NA,NA,NA,NA,NA,NA,NA,NA,NA,NA,NA,NA,NA,NA,NA,NA,NA,NA,NA,NA,NA,NA,NA,NA,NA,NA,NA,NA,NA,NA,NA,NA,NA,NA,NA,-1,1.261,0,13,13,23,1,NA,NA,NA,NA,NA,NA,NA,NA,NA,NA,NA,NA,NA,NA,"IwAR3xImbazzl19dIvkz5h8QYXIvcc3lC4Z_PsV1SdYQMWH5693pco-_SvD7M",NA,"human",2.96374747010422,1,0.916001310900064,NA,-0.818182005058487,0.823176896419957,NA,2.96374747010422,NA,0.818182005058487
"33","actor",NA,NA,NA,NA,NA,NA,NA,NA,NA,NA,"1","qs7FYRk","man",27,"13-15h","2021-12-02_21h08.39.749","bachelor","2021.2.3","Win32",59.99880002,NA,NA,NA,NA,NA,NA,NA,NA,NA,NA,NA,NA,NA,NA,NA,NA,NA,NA,NA,NA,NA,NA,NA,NA,NA,NA,NA,NA,NA,NA,NA,NA,NA,NA,NA,NA,NA,NA,NA,NA,NA,NA,NA,NA,NA,NA,NA,NA,NA,-1,1.0553,0,20,20,23,1,NA,NA,NA,NA,NA,NA,NA,NA,NA,NA,NA,NA,NA,NA,"IwAR2wFWkhAttIX2us655vg4wXxSR46FU7qlyNXrNrDCe1QtEw46K5sxflouw",NA,"human",2.96374747010422,1,0.916001310900064,NA,-0.818182005058487,0.823176896419957,NA,2.96374747010422,NA,0.818182005058487
"34","actor",NA,NA,NA,NA,NA,NA,NA,NA,NA,NA,"0","vJxGHLu","man",23,"4-6h","2021-12-11_13h54.49.366","bachelor","2021.2.3","Win32",59.89458553,NA,NA,NA,NA,NA,NA,NA,NA,NA,NA,NA,NA,NA,NA,NA,NA,NA,NA,NA,NA,NA,NA,NA,NA,NA,NA,NA,NA,NA,NA,NA,NA,NA,NA,NA,NA,NA,NA,NA,NA,NA,NA,NA,NA,NA,NA,NA,NA,NA,1,1.0012,0,23,23,23,1,NA,NA,NA,NA,NA,NA,NA,NA,NA,NA,NA,NA,NA,NA,NA,NA,"human",2.96374747010422,1,0.916001310900064,NA,0.818182005058487,0.823176896419957,NA,2.96374747010422,NA,0.818182005058487
"35","airport",NA,NA,NA,NA,NA,NA,NA,NA,NA,NA,"1","HZp1cq0","woman",21,"7-9h","2021-12-03_17h28.33.208","bachelor","2021.2.3","MacIntel",60.0024001,"space",17.1598,1,1.6262,0,0,0,6,1,NA,NA,NA,NA,NA,NA,NA,NA,NA,NA,NA,NA,NA,NA,NA,NA,NA,NA,NA,NA,NA,NA,NA,NA,NA,NA,NA,NA,NA,NA,NA,NA,NA,NA,NA,NA,NA,NA,NA,NA,NA,NA,NA,NA,NA,NA,NA,NA,NA,NA,NA,NA,NA,NA,NA,NA,NA,NA,NA,NA,NA,"IwAR34o4hFglqOf5qXH5XZv9Oee1Atpp5NPMmnwmP9_R6x9avrLQti2Cuqt_Y",NA,"scene",2.9162798521935,1,0.894386730770282,0.890898744136359,NA,0.815291402406026,2.9162798521935,NA,0.890898744136359,NA
"36","airport",NA,NA,NA,NA,NA,NA,NA,NA,NA,NA,"1","47ET5VW","man",62,"13-15h","2021-12-01_19h27.11.254","bachelor","2021.2.3","Linux x86_64",60.24096386,NA,NA,-1,2.898,0,3,3,6,1,NA,NA,NA,NA,NA,NA,NA,NA,NA,NA,NA,NA,NA,NA,NA,NA,NA,NA,NA,NA,NA,NA,NA,NA,NA,NA,NA,NA,NA,NA,NA,NA,NA,NA,NA,NA,NA,NA,NA,NA,NA,NA,NA,NA,NA,NA,NA,NA,NA,NA,NA,NA,NA,NA,NA,NA,NA,NA,NA,NA,NA,"IwAR0tjWKiBxmHLcYRcP0SeJ-U7zvS610UMRRXS4iJiq3FGl7xf4F0rqWTfgo",NA,"scene",2.9162798521935,1,0.894386730770282,-0.890898744136359,NA,0.815291402406026,2.9162798521935,NA,0.890898744136359,NA
"37","airport",NA,NA,NA,NA,NA,NA,NA,NA,NA,NA,"1","8nSGw4u","man",26,"1-3h","2021-12-06_09h54.23.116","bachelor","2021.2.3","MacIntel",76.92307692,NA,NA,1,1.65,0,24,24,6,1,NA,NA,NA,NA,NA,NA,NA,NA,NA,NA,NA,NA,NA,NA,NA,NA,NA,NA,NA,NA,NA,NA,NA,NA,NA,NA,NA,NA,NA,NA,NA,NA,NA,NA,NA,NA,NA,NA,NA,NA,NA,NA,NA,NA,NA,NA,NA,NA,NA,NA,NA,NA,NA,NA,NA,NA,NA,NA,NA,NA,NA,"IwAR150sIen65aU5-p66bogaTJxcS7EVsnNekNCpDp4woRLPco0W738Mop-Dw",NA,"scene",2.9162798521935,1,0.894386730770282,0.890898744136359,NA,0.815291402406026,2.9162798521935,NA,0.890898744136359,NA
"38","airport",NA,NA,NA,NA,NA,NA,NA,NA,NA,NA,"0","QGVynMl","woman",28,"10-12h","2021-12-12_22h34.04.519","bachelor","2021.2.3","MacIntel",59.99880002,NA,NA,1,3.3053,0,18,18,6,1,NA,NA,NA,NA,NA,NA,NA,NA,NA,NA,NA,NA,NA,NA,NA,NA,NA,NA,NA,NA,NA,NA,NA,NA,NA,NA,NA,NA,NA,NA,NA,NA,NA,NA,NA,NA,NA,NA,NA,NA,NA,NA,NA,NA,NA,NA,NA,NA,NA,NA,NA,NA,NA,NA,NA,NA,NA,NA,NA,NA,NA,"IwAR1GM1Hb5NvVLdUtLLXx6_cp4lZKlg5jemhIrj8nJ5r0UGBGy7rKYQAj_Us",NA,"scene",2.9162798521935,1,0.894386730770282,0.890898744136359,NA,0.815291402406026,2.9162798521935,NA,0.890898744136359,NA
"39","airport",NA,NA,NA,NA,NA,NA,NA,NA,NA,NA,"1","qs7FYRk","man",27,"13-15h","2021-12-02_21h08.39.749","bachelor","2021.2.3","Win32",59.99880002,NA,NA,1,2.5218,0,9,9,6,1,NA,NA,NA,NA,NA,NA,NA,NA,NA,NA,NA,NA,NA,NA,NA,NA,NA,NA,NA,NA,NA,NA,NA,NA,NA,NA,NA,NA,NA,NA,NA,NA,NA,NA,NA,NA,NA,NA,NA,NA,NA,NA,NA,NA,NA,NA,NA,NA,NA,NA,NA,NA,NA,NA,NA,NA,NA,NA,NA,NA,NA,"IwAR2wFWkhAttIX2us655vg4wXxSR46FU7qlyNXrNrDCe1QtEw46K5sxflouw",NA,"scene",2.9162798521935,1,0.894386730770282,0.890898744136359,NA,0.815291402406026,2.9162798521935,NA,0.890898744136359,NA
"40","airport",NA,NA,NA,NA,NA,NA,NA,NA,NA,NA,"0","BgAtUlU","man",28,"4-6h","2021-12-12_22h00.21.957","bachelor","2021.2.3","Win32",62.32859636,NA,NA,-1,2.6742,0,15,15,6,1,NA,NA,NA,NA,NA,NA,NA,NA,NA,NA,NA,NA,NA,NA,NA,NA,NA,NA,NA,NA,NA,NA,NA,NA,NA,NA,NA,NA,NA,NA,NA,NA,NA,NA,NA,NA,NA,NA,NA,NA,NA,NA,NA,NA,NA,NA,NA,NA,NA,NA,NA,NA,NA,NA,NA,NA,NA,NA,NA,NA,NA,"IwAR1gvXC1ZrZBSbECAGy5SRDqcszzcH-AaJ9cqEbCeBCZMWrn8WkBKoUzQAI",NA,"scene",2.9162798521935,1,0.894386730770282,-0.890898744136359,NA,0.815291402406026,2.9162798521935,NA,0.890898744136359,NA
"41","airport",NA,NA,NA,NA,NA,NA,NA,NA,NA,NA,"0","0VxhYv0","woman",55,"13-15h","2021-12-01_18h17.01.983","bachelor","2021.2.3","Win32",59.97720866,NA,NA,1,2.2445,0,14,14,6,1,NA,NA,NA,NA,NA,NA,NA,NA,NA,NA,NA,NA,NA,NA,NA,NA,NA,NA,NA,NA,NA,NA,NA,NA,NA,NA,NA,NA,NA,NA,NA,NA,NA,NA,NA,NA,NA,NA,NA,NA,NA,NA,NA,NA,NA,NA,NA,NA,NA,NA,NA,NA,NA,NA,NA,NA,NA,NA,NA,NA,NA,"IwAR17qf7l86_vGeALSJIKtFoHMA7mopAJZoSjWr-_cb06VjDcpPVyj6Sd0BM",NA,"scene",2.9162798521935,1,0.894386730770282,0.890898744136359,NA,0.815291402406026,2.9162798521935,NA,0.890898744136359,NA
"42","airport",NA,NA,NA,NA,NA,NA,NA,NA,NA,NA,"0","tITnv3Z","woman",21,"1-3h","2021-12-06_10h51.55.444","bachelor","2021.2.3","MacIntel",60.0024001,"space",20.2786,-1,1.1464,0,0,0,6,1,NA,NA,NA,NA,NA,NA,NA,NA,NA,NA,NA,NA,NA,NA,NA,NA,NA,NA,NA,NA,NA,NA,NA,NA,NA,NA,NA,NA,NA,NA,NA,NA,NA,NA,NA,NA,NA,NA,NA,NA,NA,NA,NA,NA,NA,NA,NA,NA,NA,NA,NA,NA,NA,NA,NA,NA,NA,NA,NA,NA,NA,"IwAR2b37PvDE92fbWKCZSags7V8ETFVid47-yhywKOffvfuWcT_9Kwk0wFAuI",NA,"scene",2.9162798521935,1,0.894386730770282,-0.890898744136359,NA,0.815291402406026,2.9162798521935,NA,0.890898744136359,NA
"43","airport",NA,NA,NA,NA,NA,NA,NA,NA,NA,NA,"1","s0995fA","man",34,"1-3h","2021-12-02_06h42.00.524","bachelor","2021.2.3","Win32",60.07810153,NA,NA,-1,1.6985,0,16,16,6,1,NA,NA,NA,NA,NA,NA,NA,NA,NA,NA,NA,NA,NA,NA,NA,NA,NA,NA,NA,NA,NA,NA,NA,NA,NA,NA,NA,NA,NA,NA,NA,NA,NA,NA,NA,NA,NA,NA,NA,NA,NA,NA,NA,NA,NA,NA,NA,NA,NA,NA,NA,NA,NA,NA,NA,NA,NA,NA,NA,NA,NA,"IwAR3pSigNbLrHoKkV4D12BnHrO_Vuq-0xay_Bg_EjS5V5AVDe9mklrR_J1Vo",NA,"scene",2.9162798521935,1,0.894386730770282,-0.890898744136359,NA,0.815291402406026,2.9162798521935,NA,0.890898744136359,NA
"44","airport",NA,NA,NA,NA,NA,NA,NA,NA,NA,NA,"0","DwugyIr","woman",18,"10-12h","2021-12-01_17h10.38.417","bachelor","2021.2.3","Win32",59.96641881,NA,NA,1,2.5027,0,21,21,6,1,NA,NA,NA,NA,NA,NA,NA,NA,NA,NA,NA,NA,NA,NA,NA,NA,NA,NA,NA,NA,NA,NA,NA,NA,NA,NA,NA,NA,NA,NA,NA,NA,NA,NA,NA,NA,NA,NA,NA,NA,NA,NA,NA,NA,NA,NA,NA,NA,NA,NA,NA,NA,NA,NA,NA,NA,NA,NA,NA,NA,NA,"IwAR30-zn7PZY6bv_IRc0y2CLUXBFjvoh0_DFK33PzhVQ74YXmRt2v1VZloQE",NA,"scene",2.9162798521935,1,0.894386730770282,0.890898744136359,NA,0.815291402406026,2.9162798521935,NA,0.890898744136359,NA
"45","airport",NA,NA,NA,NA,NA,NA,NA,NA,NA,NA,"1","vIpIxWv","man",32,"13-15h","2021-12-12_20h42.26.149","bachelor","2021.2.3","Win32",60.20107158,NA,NA,1,1.5388,0,22,22,6,1,NA,NA,NA,NA,NA,NA,NA,NA,NA,NA,NA,NA,NA,NA,NA,NA,NA,NA,NA,NA,NA,NA,NA,NA,NA,NA,NA,NA,NA,NA,NA,NA,NA,NA,NA,NA,NA,NA,NA,NA,NA,NA,NA,NA,NA,NA,NA,NA,NA,NA,NA,NA,NA,NA,NA,NA,NA,NA,NA,NA,NA,NA,NA,"scene",2.9162798521935,1,0.894386730770282,0.890898744136359,NA,0.815291402406026,2.9162798521935,NA,0.890898744136359,NA
"46","airport",NA,NA,NA,NA,NA,NA,NA,NA,NA,NA,"1","i5cHQii","man",29,"10-12h","2021-12-12_19h50.13.908","bachelor","2021.2.3","MacIntel",59.99520038,NA,NA,-1,1.0111,0,8,8,6,1,NA,NA,NA,NA,NA,NA,NA,NA,NA,NA,NA,NA,NA,NA,NA,NA,NA,NA,NA,NA,NA,NA,NA,NA,NA,NA,NA,NA,NA,NA,NA,NA,NA,NA,NA,NA,NA,NA,NA,NA,NA,NA,NA,NA,NA,NA,NA,NA,NA,NA,NA,NA,NA,NA,NA,NA,NA,NA,NA,NA,NA,"IwAR3vCExL7aXYkCwXCqqHvy-ugvf5lrmEJP15zVtYiR2S6nevJHXbXgMcXro",NA,"scene",2.9162798521935,1,0.894386730770282,-0.890898744136359,NA,0.815291402406026,2.9162798521935,NA,0.890898744136359,NA
"47","airport",NA,NA,NA,NA,NA,NA,NA,NA,NA,NA,"0","Wv9bebz","woman",21,"13-15h","2021-12-01_20h47.58.802","bachelor","2021.2.3","MacIntel",71.42857143,NA,NA,-1,1.284,0,9,9,6,1,NA,NA,NA,NA,NA,NA,NA,NA,NA,NA,NA,NA,NA,NA,NA,NA,NA,NA,NA,NA,NA,NA,NA,NA,NA,NA,NA,NA,NA,NA,NA,NA,NA,NA,NA,NA,NA,NA,NA,NA,NA,NA,NA,NA,NA,NA,NA,NA,NA,NA,NA,NA,NA,NA,NA,NA,NA,NA,NA,NA,NA,"IwAR0fIy4rXJbTyGk1qvhlqIHko2JwZHUIjMwkfZhFNfNAb7iLftWId5prvy8",NA,"scene",2.9162798521935,1,0.894386730770282,-0.890898744136359,NA,0.815291402406026,2.9162798521935,NA,0.890898744136359,NA
"48","airport",NA,NA,NA,NA,NA,NA,NA,NA,NA,NA,"0","5LsI3OC","woman",18,"10-12h","2021-12-01_17h10.38.417","bachelor","2021.2.3","Win32",59.96641881,NA,NA,1,2.5027,0,21,21,6,1,NA,NA,NA,NA,NA,NA,NA,NA,NA,NA,NA,NA,NA,NA,NA,NA,NA,NA,NA,NA,NA,NA,NA,NA,NA,NA,NA,NA,NA,NA,NA,NA,NA,NA,NA,NA,NA,NA,NA,NA,NA,NA,NA,NA,NA,NA,NA,NA,NA,NA,NA,NA,NA,NA,NA,NA,NA,NA,NA,NA,NA,"IwAR30-zn7PZY6bv_IRc0y2CLUXBFjvoh0_DFK33PzhVQ74YXmRt2v1VZloQE",NA,"scene",2.9162798521935,1,0.894386730770282,0.890898744136359,NA,0.815291402406026,2.9162798521935,NA,0.890898744136359,NA
"49","airport",NA,NA,NA,NA,NA,NA,NA,NA,NA,NA,"0","AZ3Gg7G","man",24,"4-6h","2021-12-11_18h10.46.274","bachelor","2021.2.3","Win32",60.29181237,NA,NA,1,1.9456,0,18,18,6,1,NA,NA,NA,NA,NA,NA,NA,NA,NA,NA,NA,NA,NA,NA,NA,NA,NA,NA,NA,NA,NA,NA,NA,NA,NA,NA,NA,NA,NA,NA,NA,NA,NA,NA,NA,NA,NA,NA,NA,NA,NA,NA,NA,NA,NA,NA,NA,NA,NA,NA,NA,NA,NA,NA,NA,NA,NA,NA,NA,NA,NA,"IwAR2Q7jZKIq7PnqEC-VFvwAdnbxakit3fX_VvYV9IJgwedJLOMhHyzayGzxI",NA,"scene",2.9162798521935,1,0.894386730770282,0.890898744136359,NA,0.815291402406026,2.9162798521935,NA,0.890898744136359,NA
"50","airport",NA,NA,NA,NA,NA,NA,NA,NA,NA,NA,"0","DXfT4CF","woman",33,"4-6h","2021-12-08_09h36.04.523","bachelor","2021.2.3","Win32",60.73858115,NA,NA,-1,1.181,0,6,6,6,1,NA,NA,NA,NA,NA,NA,NA,NA,NA,NA,NA,NA,NA,NA,NA,NA,NA,NA,NA,NA,NA,NA,NA,NA,NA,NA,NA,NA,NA,NA,NA,NA,NA,NA,NA,NA,NA,NA,NA,NA,NA,NA,NA,NA,NA,NA,NA,NA,NA,NA,NA,NA,NA,NA,NA,NA,NA,NA,NA,NA,NA,NA,NA,"scene",2.9162798521935,1,0.894386730770282,-0.890898744136359,NA,0.815291402406026,2.9162798521935,NA,0.890898744136359,NA
"51","airport",NA,NA,NA,NA,NA,NA,NA,NA,NA,NA,"0","b1IodjT","woman",24,"7-9h","2021-12-01_14h36.54.865","bachelor","2021.2.3","Win32",59.59475566,NA,NA,1,1.9286,0,12,12,6,1,NA,NA,NA,NA,NA,NA,NA,NA,NA,NA,NA,NA,NA,NA,NA,NA,NA,NA,NA,NA,NA,NA,NA,NA,NA,NA,NA,NA,NA,NA,NA,NA,NA,NA,NA,NA,NA,NA,NA,NA,NA,NA,NA,NA,NA,NA,NA,NA,NA,NA,NA,NA,NA,NA,NA,NA,NA,NA,NA,NA,NA,"IwAR3yLSyi89beHyCf_cfZaWvbm-miesleX5fER5oKj6TyDyIddQJS753WqGo",NA,"scene",2.9162798521935,1,0.894386730770282,0.890898744136359,NA,0.815291402406026,2.9162798521935,NA,0.890898744136359,NA
"52","airport",NA,NA,NA,NA,NA,NA,NA,NA,NA,NA,"0","vJxGHLu","man",23,"4-6h","2021-12-11_13h54.49.366","bachelor","2021.2.3","Win32",59.89458553,NA,NA,1,0.7331,0,24,24,6,1,NA,NA,NA,NA,NA,NA,NA,NA,NA,NA,NA,NA,NA,NA,NA,NA,NA,NA,NA,NA,NA,NA,NA,NA,NA,NA,NA,NA,NA,NA,NA,NA,NA,NA,NA,NA,NA,NA,NA,NA,NA,NA,NA,NA,NA,NA,NA,NA,NA,NA,NA,NA,NA,NA,NA,NA,NA,NA,NA,NA,NA,NA,NA,"scene",2.9162798521935,1,0.894386730770282,0.890898744136359,NA,0.815291402406026,2.9162798521935,NA,0.890898744136359,NA
"53","airport",NA,NA,NA,NA,NA,NA,NA,NA,NA,NA,"1","f8Dzr4d","man",25,"13-15h","2021-12-06_20h12.48.615","bachelor","2021.2.3","Win32",121.0360687,NA,NA,1,1.2805,0,22,22,6,1,NA,NA,NA,NA,NA,NA,NA,NA,NA,NA,NA,NA,NA,NA,NA,NA,NA,NA,NA,NA,NA,NA,NA,NA,NA,NA,NA,NA,NA,NA,NA,NA,NA,NA,NA,NA,NA,NA,NA,NA,NA,NA,NA,NA,NA,NA,NA,NA,NA,NA,NA,NA,NA,NA,NA,NA,NA,NA,NA,NA,NA,"IwAR3S7lrNNfoTUTMyWpqksg8nYfqloK-NxG4GDfI-wZWXqf2-0zXkfG9A7s8",NA,"scene",2.9162798521935,1,0.894386730770282,0.890898744136359,NA,0.815291402406026,2.9162798521935,NA,0.890898744136359,NA
"54","airport",NA,NA,NA,NA,NA,NA,NA,NA,NA,NA,"1","HHBgo2G","woman",22,"1-3h","2021-12-03_11h04.32.672","bachelor","2021.2.3","MacIntel",30.00120005,NA,NA,1,1.0242,0,17,17,6,1,NA,NA,NA,NA,NA,NA,NA,NA,NA,NA,NA,NA,NA,NA,NA,NA,NA,NA,NA,NA,NA,NA,NA,NA,NA,NA,NA,NA,NA,NA,NA,NA,NA,NA,NA,NA,NA,NA,NA,NA,NA,NA,NA,NA,NA,NA,NA,NA,NA,NA,NA,NA,NA,NA,NA,NA,NA,NA,NA,NA,NA,"IwAR0o3eiIlnvz5EHBbfqJQmODO2Dw_NiUT4VAvKbD3V8DH5-ZWROQ0FoOZfU",NA,"scene",2.9162798521935,1,0.894386730770282,0.890898744136359,NA,0.815291402406026,2.9162798521935,NA,0.890898744136359,NA
"55","airport",NA,NA,NA,NA,NA,NA,NA,NA,NA,NA,"1","MCbeohB","man",22,"4-6h","2021-12-01_14h15.27.541","bachelor","2021.2.3","Win32",60.91246878,NA,NA,-1,1.4954,0,8,8,6,1,NA,NA,NA,NA,NA,NA,NA,NA,NA,NA,NA,NA,NA,NA,NA,NA,NA,NA,NA,NA,NA,NA,NA,NA,NA,NA,NA,NA,NA,NA,NA,NA,NA,NA,NA,NA,NA,NA,NA,NA,NA,NA,NA,NA,NA,NA,NA,NA,NA,NA,NA,NA,NA,NA,NA,NA,NA,NA,NA,NA,NA,"IwAR3DabSM8ZhQHYjBm2vYXYKA36WBN4UsyQ7BdumCsNE5xC1DF9JtIZNo0w4",NA,"scene",2.9162798521935,1,0.894386730770282,-0.890898744136359,NA,0.815291402406026,2.9162798521935,NA,0.890898744136359,NA
"56","airport",NA,NA,NA,NA,NA,NA,NA,NA,NA,NA,"1","zSVhIjL","man",22,"10-12h","2021-12-18_20h07.54.328","bachelor","2021.2.3","Win32",60.14675809,NA,NA,-1,0.1901,0,18,18,6,1,NA,NA,NA,NA,NA,NA,NA,NA,NA,NA,NA,NA,NA,NA,NA,NA,NA,NA,NA,NA,NA,NA,NA,NA,NA,NA,NA,NA,NA,NA,NA,NA,NA,NA,NA,NA,NA,NA,NA,NA,NA,NA,NA,NA,NA,NA,NA,NA,NA,NA,NA,NA,NA,NA,NA,NA,NA,NA,NA,NA,NA,"IwAR3xImbazzl19dIvkz5h8QYXIvcc3lC4Z_PsV1SdYQMWH5693pco-_SvD7M",NA,"scene",2.9162798521935,1,0.894386730770282,-0.890898744136359,NA,0.815291402406026,2.9162798521935,NA,0.890898744136359,NA
"57","airport",NA,NA,NA,NA,NA,NA,NA,NA,NA,NA,"1","oqaT2rf","man",24,"10-12h","2021-12-02_20h49.38.753","bachelor","2021.2.3","Win32",60.0132029,NA,NA,-1,1.7972,0,7,7,6,1,NA,NA,NA,NA,NA,NA,NA,NA,NA,NA,NA,NA,NA,NA,NA,NA,NA,NA,NA,NA,NA,NA,NA,NA,NA,NA,NA,NA,NA,NA,NA,NA,NA,NA,NA,NA,NA,NA,NA,NA,NA,NA,NA,NA,NA,NA,NA,NA,NA,NA,NA,NA,NA,NA,NA,NA,NA,NA,NA,NA,NA,"IwAR2QXWwh8gZK1koYfP-KWOSWoIu4Ii1ih1T5WzlYDBDafJno2SPmhK0a36w",NA,"scene",2.9162798521935,1,0.894386730770282,-0.890898744136359,NA,0.815291402406026,2.9162798521935,NA,0.890898744136359,NA
"58","airport",NA,NA,NA,NA,NA,NA,NA,NA,NA,NA,"0","FcQYQIm","man",24,"7-9h","2021-12-06_20h23.58.551","bachelor","2021.2.3","MacIntel",58.82352941,NA,NA,-1,2.419,0,25,25,6,1,NA,NA,NA,NA,NA,NA,NA,NA,NA,NA,NA,NA,NA,NA,NA,NA,NA,NA,NA,NA,NA,NA,NA,NA,NA,NA,NA,NA,NA,NA,NA,NA,NA,NA,NA,NA,NA,NA,NA,NA,NA,NA,NA,NA,NA,NA,NA,NA,NA,NA,NA,NA,NA,NA,NA,NA,NA,NA,NA,NA,NA,"IwAR08BE4J92EyYVh4OdBtUtbPLHO2nJ7VIy3dZEFJss6joWhAPq22kb2nxKc",NA,"scene",2.9162798521935,1,0.894386730770282,-0.890898744136359,NA,0.815291402406026,2.9162798521935,NA,0.890898744136359,NA
"59","airport",NA,NA,NA,NA,NA,NA,NA,NA,NA,NA,"1","4kZA5NH","other",22,"4-6h","2021-12-08_14h02.11.847","bachelor","2021.2.3","Win32",60.07088364,NA,NA,1,1.2157,0,11,11,6,1,NA,NA,NA,NA,NA,NA,NA,NA,NA,NA,NA,NA,NA,NA,NA,NA,NA,NA,NA,NA,NA,NA,NA,NA,NA,NA,NA,NA,NA,NA,NA,NA,NA,NA,NA,NA,NA,NA,NA,NA,NA,NA,NA,NA,NA,NA,NA,NA,NA,NA,NA,NA,NA,NA,NA,NA,NA,NA,NA,NA,NA,NA,NA,"scene",2.9162798521935,1,0.894386730770282,0.890898744136359,NA,0.815291402406026,2.9162798521935,NA,0.890898744136359,NA
"60","airport",NA,NA,NA,NA,NA,NA,NA,NA,NA,NA,"1","0DYUKyQ","woman",33,"7-9h","2021-12-20_14h14.37.099","bachelor","2021.2.3","Win32",59.92329818,NA,NA,1,2.5566,0,10,10,6,1,NA,NA,NA,NA,NA,NA,NA,NA,NA,NA,NA,NA,NA,NA,NA,NA,NA,NA,NA,NA,NA,NA,NA,NA,NA,NA,NA,NA,NA,NA,NA,NA,NA,NA,NA,NA,NA,NA,NA,NA,NA,NA,NA,NA,NA,NA,NA,NA,NA,NA,NA,NA,NA,NA,NA,NA,NA,NA,NA,NA,NA,NA,NA,"scene",2.9162798521935,1,0.894386730770282,0.890898744136359,NA,0.815291402406026,2.9162798521935,NA,0.890898744136359,NA
"61","airport",NA,NA,NA,NA,NA,NA,NA,NA,NA,NA,"1","fzz8ygr","man",26,"16-18h","2021-12-03_21h15.37.122","bachelor","2021.2.3","Win32",59.97001499,NA,NA,-1,2.3041,0,2,2,6,1,NA,NA,NA,NA,NA,NA,NA,NA,NA,NA,NA,NA,NA,NA,NA,NA,NA,NA,NA,NA,NA,NA,NA,NA,NA,NA,NA,NA,NA,NA,NA,NA,NA,NA,NA,NA,NA,NA,NA,NA,NA,NA,NA,NA,NA,NA,NA,NA,NA,NA,NA,NA,NA,NA,NA,NA,NA,NA,NA,NA,NA,"IwAR17Lusyd9utx4WzBryBumfKoHJdoNPWIBJiLZ5sTws4ihTeQKsMUorjwHs",NA,"scene",2.9162798521935,1,0.894386730770282,-0.890898744136359,NA,0.815291402406026,2.9162798521935,NA,0.890898744136359,NA
"62","airport",NA,NA,NA,NA,NA,NA,NA,NA,NA,NA,"0","jYhj9yS","man",20,"10-12h","2021-12-07_19h19.21.114","bachelor","2021.2.3","Win32",59.93407252,NA,NA,1,2.6969,0,18,18,6,1,NA,NA,NA,NA,NA,NA,NA,NA,NA,NA,NA,NA,NA,NA,NA,NA,NA,NA,NA,NA,NA,NA,NA,NA,NA,NA,NA,NA,NA,NA,NA,NA,NA,NA,NA,NA,NA,NA,NA,NA,NA,NA,NA,NA,NA,NA,NA,NA,NA,NA,NA,NA,NA,NA,NA,NA,NA,NA,NA,NA,NA,"IwAR3hMbX0hdVyF1MsQbbo-rjMO46g-dm1Sys-XXHoE16wUwHHlUIfFau-ICk",NA,"scene",2.9162798521935,1,0.894386730770282,0.890898744136359,NA,0.815291402406026,2.9162798521935,NA,0.890898744136359,NA
"63","airport",NA,NA,NA,NA,NA,NA,NA,NA,NA,NA,"0","p9QcJ5B","woman",23,"4-6h","2021-12-06_13h25.11.791","bachelor","2021.2.3","MacIntel",60.0024001,NA,NA,-1,7.8871,0,16,16,6,1,NA,NA,NA,NA,NA,NA,NA,NA,NA,NA,NA,NA,NA,NA,NA,NA,NA,NA,NA,NA,NA,NA,NA,NA,NA,NA,NA,NA,NA,NA,NA,NA,NA,NA,NA,NA,NA,NA,NA,NA,NA,NA,NA,NA,NA,NA,NA,NA,NA,NA,NA,NA,NA,NA,NA,NA,NA,NA,NA,NA,NA,NA,NA,"scene",2.9162798521935,1,0.894386730770282,-0.890898744136359,NA,0.815291402406026,2.9162798521935,NA,0.890898744136359,NA
"64","airport",NA,NA,NA,NA,NA,NA,NA,NA,NA,NA,"1","ckBIX57","woman",32,"4-6h","2021-12-04_20h54.45.847","bachelor","2021.2.3","MacIntel",58.82352941,NA,NA,-1,0.833,0,24,24,6,1,NA,NA,NA,NA,NA,NA,NA,NA,NA,NA,NA,NA,NA,NA,NA,NA,NA,NA,NA,NA,NA,NA,NA,NA,NA,NA,NA,NA,NA,NA,NA,NA,NA,NA,NA,NA,NA,NA,NA,NA,NA,NA,NA,NA,NA,NA,NA,NA,NA,NA,NA,NA,NA,NA,NA,NA,NA,NA,NA,NA,NA,"IwAR1XnQd6Ia16RXHb8MRvMwbxGnGWK4DGcnByoOoi_uEyfvFe2aaF7JGEQX8",NA,"scene",2.9162798521935,1,0.894386730770282,-0.890898744136359,NA,0.815291402406026,2.9162798521935,NA,0.890898744136359,NA
"65","airport",NA,NA,NA,NA,NA,NA,NA,NA,NA,NA,"0","ezKRId9","woman",35,"7-9h","2021-12-18_08h42.56.536","bachelor","2021.2.3","Win32",60.70908208,NA,NA,1,1.3226,0,18,18,6,1,NA,NA,NA,NA,NA,NA,NA,NA,NA,NA,NA,NA,NA,NA,NA,NA,NA,NA,NA,NA,NA,NA,NA,NA,NA,NA,NA,NA,NA,NA,NA,NA,NA,NA,NA,NA,NA,NA,NA,NA,NA,NA,NA,NA,NA,NA,NA,NA,NA,NA,NA,NA,NA,NA,NA,NA,NA,NA,NA,NA,NA,"IwAR2y5zX-biLucKujY29B_pMPr-qJWH8yualuXXoON_tRCg637kR1zjPuUhw",NA,"scene",2.9162798521935,1,0.894386730770282,0.890898744136359,NA,0.815291402406026,2.9162798521935,NA,0.890898744136359,NA
"66","airport",NA,NA,NA,NA,NA,NA,NA,NA,NA,NA,"0","JVY7jCo","woman",22,"1-3h","2021-12-02_09h47.18.198","bachelor","2021.2.3","Win32",59.9268892,NA,NA,1,0.8799,0,6,6,6,1,NA,NA,NA,NA,NA,NA,NA,NA,NA,NA,NA,NA,NA,NA,NA,NA,NA,NA,NA,NA,NA,NA,NA,NA,NA,NA,NA,NA,NA,NA,NA,NA,NA,NA,NA,NA,NA,NA,NA,NA,NA,NA,NA,NA,NA,NA,NA,NA,NA,NA,NA,NA,NA,NA,NA,NA,NA,NA,NA,NA,NA,"IwAR1d1TKlMt1yzBDY5woBuInyc2XF-19_z_l9N1cMfEXg579fCM0azRbEP2k",NA,"scene",2.9162798521935,1,0.894386730770282,0.890898744136359,NA,0.815291402406026,2.9162798521935,NA,0.890898744136359,NA
"67","airport",NA,NA,NA,NA,NA,NA,NA,NA,NA,NA,"1","wbVg3iX","woman",24,"4-6h","2021-12-04_12h48.41.699","bachelor","2021.2.3","Win32",59.69080165,NA,NA,-1,1.119,0,25,25,6,1,NA,NA,NA,NA,NA,NA,NA,NA,NA,NA,NA,NA,NA,NA,NA,NA,NA,NA,NA,NA,NA,NA,NA,NA,NA,NA,NA,NA,NA,NA,NA,NA,NA,NA,NA,NA,NA,NA,NA,NA,NA,NA,NA,NA,NA,NA,NA,NA,NA,NA,NA,NA,NA,NA,NA,NA,NA,NA,NA,NA,NA,"IwAR1U9sv7jt6-VzaoK-jLrG5svuDWOPsE4OrmrlNSodsVR0DslIWgxoNfjnw",NA,"scene",2.9162798521935,1,0.894386730770282,-0.890898744136359,NA,0.815291402406026,2.9162798521935,NA,0.890898744136359,NA
"68","airport",NA,NA,NA,NA,NA,NA,NA,NA,NA,NA,"1","0gnVEeX","man",32,"10-12h","2021-12-04_20h31.09.158","bachelor","2021.2.3","MacIntel",58.82352941,NA,NA,1,1.485,0,15,15,6,1,NA,NA,NA,NA,NA,NA,NA,NA,NA,NA,NA,NA,NA,NA,NA,NA,NA,NA,NA,NA,NA,NA,NA,NA,NA,NA,NA,NA,NA,NA,NA,NA,NA,NA,NA,NA,NA,NA,NA,NA,NA,NA,NA,NA,NA,NA,NA,NA,NA,NA,NA,NA,NA,NA,NA,NA,NA,NA,NA,NA,NA,"IwAR3y99_qi9ZkahrWl2gxbFf1IxdizgmXWHn01GjRv4YStcN-ylfQ7-olS5w",NA,"scene",2.9162798521935,1,0.894386730770282,0.890898744136359,NA,0.815291402406026,2.9162798521935,NA,0.890898744136359,NA
"69","ambulance",NA,NA,NA,NA,NA,NA,NA,NA,NA,NA,"1","ckBIX57","woman",32,"4-6h","2021-12-04_20h54.45.847","bachelor","2021.2.3","MacIntel",58.82352941,"space",17.182,-1,2.151,0,0,0,21,1,NA,NA,NA,NA,NA,NA,NA,NA,NA,NA,NA,NA,NA,NA,NA,NA,NA,NA,NA,NA,NA,NA,NA,NA,NA,NA,NA,NA,NA,NA,NA,NA,NA,NA,NA,NA,NA,NA,NA,NA,NA,NA,NA,NA,NA,NA,NA,NA,NA,NA,NA,NA,NA,NA,NA,NA,NA,NA,NA,NA,NA,"IwAR1XnQd6Ia16RXHb8MRvMwbxGnGWK4DGcnByoOoi_uEyfvFe2aaF7JGEQX8",NA,"human",-0.887278229357071,-1,-0.837579492741983,-0.20044115869354,NA,0.183430445319084,-0.887278229357071,NA,0.20044115869354,NA
"70","ambulance",NA,NA,NA,NA,NA,NA,NA,NA,NA,NA,"1","qs7FYRk","man",27,"13-15h","2021-12-02_21h08.39.749","bachelor","2021.2.3","Win32",59.99880002,NA,NA,-1,1.5875,0,6,6,21,1,NA,NA,NA,NA,NA,NA,NA,NA,NA,NA,NA,NA,NA,NA,NA,NA,NA,NA,NA,NA,NA,NA,NA,NA,NA,NA,NA,NA,NA,NA,NA,NA,NA,NA,NA,NA,NA,NA,NA,NA,NA,NA,NA,NA,NA,NA,NA,NA,NA,NA,NA,NA,NA,NA,NA,NA,NA,NA,NA,NA,NA,"IwAR2wFWkhAttIX2us655vg4wXxSR46FU7qlyNXrNrDCe1QtEw46K5sxflouw",NA,"human",-0.887278229357071,-1,-0.837579492741983,-0.20044115869354,NA,0.183430445319084,-0.887278229357071,NA,0.20044115869354,NA
"71","ambulance",NA,NA,NA,NA,NA,NA,NA,NA,NA,NA,"1","oqaT2rf","man",24,"10-12h","2021-12-02_20h49.38.753","bachelor","2021.2.3","Win32",60.0132029,NA,NA,-1,1.1755,0,5,5,21,1,NA,NA,NA,NA,NA,NA,NA,NA,NA,NA,NA,NA,NA,NA,NA,NA,NA,NA,NA,NA,NA,NA,NA,NA,NA,NA,NA,NA,NA,NA,NA,NA,NA,NA,NA,NA,NA,NA,NA,NA,NA,NA,NA,NA,NA,NA,NA,NA,NA,NA,NA,NA,NA,NA,NA,NA,NA,NA,NA,NA,NA,"IwAR2QXWwh8gZK1koYfP-KWOSWoIu4Ii1ih1T5WzlYDBDafJno2SPmhK0a36w",NA,"human",-0.887278229357071,-1,-0.837579492741983,-0.20044115869354,NA,0.183430445319084,-0.887278229357071,NA,0.20044115869354,NA
"72","ambulance",NA,NA,NA,NA,NA,NA,NA,NA,NA,NA,"1","HZp1cq0","woman",21,"7-9h","2021-12-03_17h28.33.208","bachelor","2021.2.3","MacIntel",60.0024001,NA,NA,-1,1.3829,0,6,6,21,1,NA,NA,NA,NA,NA,NA,NA,NA,NA,NA,NA,NA,NA,NA,NA,NA,NA,NA,NA,NA,NA,NA,NA,NA,NA,NA,NA,NA,NA,NA,NA,NA,NA,NA,NA,NA,NA,NA,NA,NA,NA,NA,NA,NA,NA,NA,NA,NA,NA,NA,NA,NA,NA,NA,NA,NA,NA,NA,NA,NA,NA,"IwAR34o4hFglqOf5qXH5XZv9Oee1Atpp5NPMmnwmP9_R6x9avrLQti2Cuqt_Y",NA,"human",-0.887278229357071,-1,-0.837579492741983,-0.20044115869354,NA,0.183430445319084,-0.887278229357071,NA,0.20044115869354,NA
"73","ambulance",NA,NA,NA,NA,NA,NA,NA,NA,NA,NA,"1","4kZA5NH","other",22,"4-6h","2021-12-08_14h02.11.847","bachelor","2021.2.3","Win32",60.07088364,NA,NA,-1,1.284,0,15,15,21,1,NA,NA,NA,NA,NA,NA,NA,NA,NA,NA,NA,NA,NA,NA,NA,NA,NA,NA,NA,NA,NA,NA,NA,NA,NA,NA,NA,NA,NA,NA,NA,NA,NA,NA,NA,NA,NA,NA,NA,NA,NA,NA,NA,NA,NA,NA,NA,NA,NA,NA,NA,NA,NA,NA,NA,NA,NA,NA,NA,NA,NA,NA,NA,"human",-0.887278229357071,-1,-0.837579492741983,-0.20044115869354,NA,0.183430445319084,-0.887278229357071,NA,0.20044115869354,NA
"74","ambulance",NA,NA,NA,NA,NA,NA,NA,NA,NA,NA,"1","0DYUKyQ","woman",33,"7-9h","2021-12-20_14h14.37.099","bachelor","2021.2.3","Win32",59.92329818,NA,NA,-1,1.4026,0,26,26,21,1,NA,NA,NA,NA,NA,NA,NA,NA,NA,NA,NA,NA,NA,NA,NA,NA,NA,NA,NA,NA,NA,NA,NA,NA,NA,NA,NA,NA,NA,NA,NA,NA,NA,NA,NA,NA,NA,NA,NA,NA,NA,NA,NA,NA,NA,NA,NA,NA,NA,NA,NA,NA,NA,NA,NA,NA,NA,NA,NA,NA,NA,NA,NA,"human",-0.887278229357071,-1,-0.837579492741983,-0.20044115869354,NA,0.183430445319084,-0.887278229357071,NA,0.20044115869354,NA
"75","ambulance",NA,NA,NA,NA,NA,NA,NA,NA,NA,NA,"0","AZ3Gg7G","man",24,"4-6h","2021-12-11_18h10.46.274","bachelor","2021.2.3","Win32",60.29181237,NA,NA,-1,5.0782,0,21,21,21,1,NA,NA,NA,NA,NA,NA,NA,NA,NA,NA,NA,NA,NA,NA,NA,NA,NA,NA,NA,NA,NA,NA,NA,NA,NA,NA,NA,NA,NA,NA,NA,NA,NA,NA,NA,NA,NA,NA,NA,NA,NA,NA,NA,NA,NA,NA,NA,NA,NA,NA,NA,NA,NA,NA,NA,NA,NA,NA,NA,NA,NA,"IwAR2Q7jZKIq7PnqEC-VFvwAdnbxakit3fX_VvYV9IJgwedJLOMhHyzayGzxI",NA,"human",-0.887278229357071,-1,-0.837579492741983,-0.20044115869354,NA,0.183430445319084,-0.887278229357071,NA,0.20044115869354,NA
"76","ambulance",NA,NA,NA,NA,NA,NA,NA,NA,NA,NA,"0","tITnv3Z","woman",21,"1-3h","2021-12-06_10h51.55.444","bachelor","2021.2.3","MacIntel",60.0024001,NA,NA,1,1.0269,0,24,24,21,1,NA,NA,NA,NA,NA,NA,NA,NA,NA,NA,NA,NA,NA,NA,NA,NA,NA,NA,NA,NA,NA,NA,NA,NA,NA,NA,NA,NA,NA,NA,NA,NA,NA,NA,NA,NA,NA,NA,NA,NA,NA,NA,NA,NA,NA,NA,NA,NA,NA,NA,NA,NA,NA,NA,NA,NA,NA,NA,NA,NA,NA,"IwAR2b37PvDE92fbWKCZSags7V8ETFVid47-yhywKOffvfuWcT_9Kwk0wFAuI",NA,"human",-0.887278229357071,-1,-0.837579492741983,0.20044115869354,NA,0.183430445319084,-0.887278229357071,NA,0.20044115869354,NA
"77","ambulance",NA,NA,NA,NA,NA,NA,NA,NA,NA,NA,"0","JVY7jCo","woman",22,"1-3h","2021-12-02_09h47.18.198","bachelor","2021.2.3","Win32",59.9268892,NA,NA,-1,1.794,0,23,23,21,1,NA,NA,NA,NA,NA,NA,NA,NA,NA,NA,NA,NA,NA,NA,NA,NA,NA,NA,NA,NA,NA,NA,NA,NA,NA,NA,NA,NA,NA,NA,NA,NA,NA,NA,NA,NA,NA,NA,NA,NA,NA,NA,NA,NA,NA,NA,NA,NA,NA,NA,NA,NA,NA,NA,NA,NA,NA,NA,NA,NA,NA,"IwAR1d1TKlMt1yzBDY5woBuInyc2XF-19_z_l9N1cMfEXg579fCM0azRbEP2k",NA,"human",-0.887278229357071,-1,-0.837579492741983,-0.20044115869354,NA,0.183430445319084,-0.887278229357071,NA,0.20044115869354,NA
"78","ambulance",NA,NA,NA,NA,NA,NA,NA,NA,NA,NA,"1","i5cHQii","man",29,"10-12h","2021-12-12_19h50.13.908","bachelor","2021.2.3","MacIntel",59.99520038,NA,NA,-1,1.0468,0,14,14,21,1,NA,NA,NA,NA,NA,NA,NA,NA,NA,NA,NA,NA,NA,NA,NA,NA,NA,NA,NA,NA,NA,NA,NA,NA,NA,NA,NA,NA,NA,NA,NA,NA,NA,NA,NA,NA,NA,NA,NA,NA,NA,NA,NA,NA,NA,NA,NA,NA,NA,NA,NA,NA,NA,NA,NA,NA,NA,NA,NA,NA,NA,"IwAR3vCExL7aXYkCwXCqqHvy-ugvf5lrmEJP15zVtYiR2S6nevJHXbXgMcXro",NA,"human",-0.887278229357071,-1,-0.837579492741983,-0.20044115869354,NA,0.183430445319084,-0.887278229357071,NA,0.20044115869354,NA
"79","ambulance",NA,NA,NA,NA,NA,NA,NA,NA,NA,NA,"1","HHBgo2G","woman",22,"1-3h","2021-12-03_11h04.32.672","bachelor","2021.2.3","MacIntel",30.00120005,NA,NA,-1,2.2865,0,2,2,21,1,NA,NA,NA,NA,NA,NA,NA,NA,NA,NA,NA,NA,NA,NA,NA,NA,NA,NA,NA,NA,NA,NA,NA,NA,NA,NA,NA,NA,NA,NA,NA,NA,NA,NA,NA,NA,NA,NA,NA,NA,NA,NA,NA,NA,NA,NA,NA,NA,NA,NA,NA,NA,NA,NA,NA,NA,NA,NA,NA,NA,NA,"IwAR0o3eiIlnvz5EHBbfqJQmODO2Dw_NiUT4VAvKbD3V8DH5-ZWROQ0FoOZfU",NA,"human",-0.887278229357071,-1,-0.837579492741983,-0.20044115869354,NA,0.183430445319084,-0.887278229357071,NA,0.20044115869354,NA
"80","ambulance",NA,NA,NA,NA,NA,NA,NA,NA,NA,NA,"0","FcQYQIm","man",24,"7-9h","2021-12-06_20h23.58.551","bachelor","2021.2.3","MacIntel",58.82352941,NA,NA,-1,1.911,0,6,6,21,1,NA,NA,NA,NA,NA,NA,NA,NA,NA,NA,NA,NA,NA,NA,NA,NA,NA,NA,NA,NA,NA,NA,NA,NA,NA,NA,NA,NA,NA,NA,NA,NA,NA,NA,NA,NA,NA,NA,NA,NA,NA,NA,NA,NA,NA,NA,NA,NA,NA,NA,NA,NA,NA,NA,NA,NA,NA,NA,NA,NA,NA,"IwAR08BE4J92EyYVh4OdBtUtbPLHO2nJ7VIy3dZEFJss6joWhAPq22kb2nxKc",NA,"human",-0.887278229357071,-1,-0.837579492741983,-0.20044115869354,NA,0.183430445319084,-0.887278229357071,NA,0.20044115869354,NA
"81","ambulance",NA,NA,NA,NA,NA,NA,NA,NA,NA,NA,"0","0VxhYv0","woman",55,"13-15h","2021-12-01_18h17.01.983","bachelor","2021.2.3","Win32",59.97720866,NA,NA,1,2.4165,0,7,7,21,1,NA,NA,NA,NA,NA,NA,NA,NA,NA,NA,NA,NA,NA,NA,NA,NA,NA,NA,NA,NA,NA,NA,NA,NA,NA,NA,NA,NA,NA,NA,NA,NA,NA,NA,NA,NA,NA,NA,NA,NA,NA,NA,NA,NA,NA,NA,NA,NA,NA,NA,NA,NA,NA,NA,NA,NA,NA,NA,NA,NA,NA,"IwAR17qf7l86_vGeALSJIKtFoHMA7mopAJZoSjWr-_cb06VjDcpPVyj6Sd0BM",NA,"human",-0.887278229357071,-1,-0.837579492741983,0.20044115869354,NA,0.183430445319084,-0.887278229357071,NA,0.20044115869354,NA
"82","ambulance",NA,NA,NA,NA,NA,NA,NA,NA,NA,NA,"0","Wv9bebz","woman",21,"13-15h","2021-12-01_20h47.58.802","bachelor","2021.2.3","MacIntel",71.42857143,NA,NA,1,1.294,0,12,12,21,1,NA,NA,NA,NA,NA,NA,NA,NA,NA,NA,NA,NA,NA,NA,NA,NA,NA,NA,NA,NA,NA,NA,NA,NA,NA,NA,NA,NA,NA,NA,NA,NA,NA,NA,NA,NA,NA,NA,NA,NA,NA,NA,NA,NA,NA,NA,NA,NA,NA,NA,NA,NA,NA,NA,NA,NA,NA,NA,NA,NA,NA,"IwAR0fIy4rXJbTyGk1qvhlqIHko2JwZHUIjMwkfZhFNfNAb7iLftWId5prvy8",NA,"human",-0.887278229357071,-1,-0.837579492741983,0.20044115869354,NA,0.183430445319084,-0.887278229357071,NA,0.20044115869354,NA
"83","ambulance",NA,NA,NA,NA,NA,NA,NA,NA,NA,NA,"1","fzz8ygr","man",26,"16-18h","2021-12-03_21h15.37.122","bachelor","2021.2.3","Win32",59.97001499,NA,NA,-1,2.4476,0,15,15,21,1,NA,NA,NA,NA,NA,NA,NA,NA,NA,NA,NA,NA,NA,NA,NA,NA,NA,NA,NA,NA,NA,NA,NA,NA,NA,NA,NA,NA,NA,NA,NA,NA,NA,NA,NA,NA,NA,NA,NA,NA,NA,NA,NA,NA,NA,NA,NA,NA,NA,NA,NA,NA,NA,NA,NA,NA,NA,NA,NA,NA,NA,"IwAR17Lusyd9utx4WzBryBumfKoHJdoNPWIBJiLZ5sTws4ihTeQKsMUorjwHs",NA,"human",-0.887278229357071,-1,-0.837579492741983,-0.20044115869354,NA,0.183430445319084,-0.887278229357071,NA,0.20044115869354,NA
"84","ambulance",NA,NA,NA,NA,NA,NA,NA,NA,NA,NA,"0","DXfT4CF","woman",33,"4-6h","2021-12-08_09h36.04.523","bachelor","2021.2.3","Win32",60.73858115,NA,NA,1,1.359,0,12,12,21,1,NA,NA,NA,NA,NA,NA,NA,NA,NA,NA,NA,NA,NA,NA,NA,NA,NA,NA,NA,NA,NA,NA,NA,NA,NA,NA,NA,NA,NA,NA,NA,NA,NA,NA,NA,NA,NA,NA,NA,NA,NA,NA,NA,NA,NA,NA,NA,NA,NA,NA,NA,NA,NA,NA,NA,NA,NA,NA,NA,NA,NA,NA,NA,"human",-0.887278229357071,-1,-0.837579492741983,0.20044115869354,NA,0.183430445319084,-0.887278229357071,NA,0.20044115869354,NA
"85","ambulance",NA,NA,NA,NA,NA,NA,NA,NA,NA,NA,"1","MCbeohB","man",22,"4-6h","2021-12-01_14h15.27.541","bachelor","2021.2.3","Win32",60.91246878,NA,NA,-1,1.0994,0,20,20,21,1,NA,NA,NA,NA,NA,NA,NA,NA,NA,NA,NA,NA,NA,NA,NA,NA,NA,NA,NA,NA,NA,NA,NA,NA,NA,NA,NA,NA,NA,NA,NA,NA,NA,NA,NA,NA,NA,NA,NA,NA,NA,NA,NA,NA,NA,NA,NA,NA,NA,NA,NA,NA,NA,NA,NA,NA,NA,NA,NA,NA,NA,"IwAR3DabSM8ZhQHYjBm2vYXYKA36WBN4UsyQ7BdumCsNE5xC1DF9JtIZNo0w4",NA,"human",-0.887278229357071,-1,-0.837579492741983,-0.20044115869354,NA,0.183430445319084,-0.887278229357071,NA,0.20044115869354,NA
"86","ambulance",NA,NA,NA,NA,NA,NA,NA,NA,NA,NA,"0","vJxGHLu","man",23,"4-6h","2021-12-11_13h54.49.366","bachelor","2021.2.3","Win32",59.89458553,NA,NA,1,1.3281,0,21,21,21,1,NA,NA,NA,NA,NA,NA,NA,NA,NA,NA,NA,NA,NA,NA,NA,NA,NA,NA,NA,NA,NA,NA,NA,NA,NA,NA,NA,NA,NA,NA,NA,NA,NA,NA,NA,NA,NA,NA,NA,NA,NA,NA,NA,NA,NA,NA,NA,NA,NA,NA,NA,NA,NA,NA,NA,NA,NA,NA,NA,NA,NA,NA,NA,"human",-0.887278229357071,-1,-0.837579492741983,0.20044115869354,NA,0.183430445319084,-0.887278229357071,NA,0.20044115869354,NA
"87","ambulance",NA,NA,NA,NA,NA,NA,NA,NA,NA,NA,"0","BgAtUlU","man",28,"4-6h","2021-12-12_22h00.21.957","bachelor","2021.2.3","Win32",62.32859636,NA,NA,-1,2.7453,0,9,9,21,1,NA,NA,NA,NA,NA,NA,NA,NA,NA,NA,NA,NA,NA,NA,NA,NA,NA,NA,NA,NA,NA,NA,NA,NA,NA,NA,NA,NA,NA,NA,NA,NA,NA,NA,NA,NA,NA,NA,NA,NA,NA,NA,NA,NA,NA,NA,NA,NA,NA,NA,NA,NA,NA,NA,NA,NA,NA,NA,NA,NA,NA,"IwAR1gvXC1ZrZBSbECAGy5SRDqcszzcH-AaJ9cqEbCeBCZMWrn8WkBKoUzQAI",NA,"human",-0.887278229357071,-1,-0.837579492741983,-0.20044115869354,NA,0.183430445319084,-0.887278229357071,NA,0.20044115869354,NA
"88","ambulance",NA,NA,NA,NA,NA,NA,NA,NA,NA,NA,"1","47ET5VW","man",62,"13-15h","2021-12-01_19h27.11.254","bachelor","2021.2.3","Linux x86_64",60.24096386,NA,NA,1,2.65,0,5,5,21,1,NA,NA,NA,NA,NA,NA,NA,NA,NA,NA,NA,NA,NA,NA,NA,NA,NA,NA,NA,NA,NA,NA,NA,NA,NA,NA,NA,NA,NA,NA,NA,NA,NA,NA,NA,NA,NA,NA,NA,NA,NA,NA,NA,NA,NA,NA,NA,NA,NA,NA,NA,NA,NA,NA,NA,NA,NA,NA,NA,NA,NA,"IwAR0tjWKiBxmHLcYRcP0SeJ-U7zvS610UMRRXS4iJiq3FGl7xf4F0rqWTfgo",NA,"human",-0.887278229357071,-1,-0.837579492741983,0.20044115869354,NA,0.183430445319084,-0.887278229357071,NA,0.20044115869354,NA
"89","ambulance",NA,NA,NA,NA,NA,NA,NA,NA,NA,NA,"1","wbVg3iX","woman",24,"4-6h","2021-12-04_12h48.41.699","bachelor","2021.2.3","Win32",59.69080165,NA,NA,-1,3.0549,0,4,4,21,1,NA,NA,NA,NA,NA,NA,NA,NA,NA,NA,NA,NA,NA,NA,NA,NA,NA,NA,NA,NA,NA,NA,NA,NA,NA,NA,NA,NA,NA,NA,NA,NA,NA,NA,NA,NA,NA,NA,NA,NA,NA,NA,NA,NA,NA,NA,NA,NA,NA,NA,NA,NA,NA,NA,NA,NA,NA,NA,NA,NA,NA,"IwAR1U9sv7jt6-VzaoK-jLrG5svuDWOPsE4OrmrlNSodsVR0DslIWgxoNfjnw",NA,"human",-0.887278229357071,-1,-0.837579492741983,-0.20044115869354,NA,0.183430445319084,-0.887278229357071,NA,0.20044115869354,NA
"90","ambulance",NA,NA,NA,NA,NA,NA,NA,NA,NA,NA,"0","DwugyIr","woman",18,"10-12h","2021-12-01_17h10.38.417","bachelor","2021.2.3","Win32",59.96641881,NA,NA,-1,1.4727,0,25,25,21,1,NA,NA,NA,NA,NA,NA,NA,NA,NA,NA,NA,NA,NA,NA,NA,NA,NA,NA,NA,NA,NA,NA,NA,NA,NA,NA,NA,NA,NA,NA,NA,NA,NA,NA,NA,NA,NA,NA,NA,NA,NA,NA,NA,NA,NA,NA,NA,NA,NA,NA,NA,NA,NA,NA,NA,NA,NA,NA,NA,NA,NA,"IwAR30-zn7PZY6bv_IRc0y2CLUXBFjvoh0_DFK33PzhVQ74YXmRt2v1VZloQE",NA,"human",-0.887278229357071,-1,-0.837579492741983,-0.20044115869354,NA,0.183430445319084,-0.887278229357071,NA,0.20044115869354,NA
"91","ambulance",NA,NA,NA,NA,NA,NA,NA,NA,NA,NA,"0","ezKRId9","woman",35,"7-9h","2021-12-18_08h42.56.536","bachelor","2021.2.3","Win32",60.70908208,NA,NA,-1,1.6347,0,19,19,21,1,NA,NA,NA,NA,NA,NA,NA,NA,NA,NA,NA,NA,NA,NA,NA,NA,NA,NA,NA,NA,NA,NA,NA,NA,NA,NA,NA,NA,NA,NA,NA,NA,NA,NA,NA,NA,NA,NA,NA,NA,NA,NA,NA,NA,NA,NA,NA,NA,NA,NA,NA,NA,NA,NA,NA,NA,NA,NA,NA,NA,NA,"IwAR2y5zX-biLucKujY29B_pMPr-qJWH8yualuXXoON_tRCg637kR1zjPuUhw",NA,"human",-0.887278229357071,-1,-0.837579492741983,-0.20044115869354,NA,0.183430445319084,-0.887278229357071,NA,0.20044115869354,NA
"92","ambulance",NA,NA,NA,NA,NA,NA,NA,NA,NA,NA,"1","zSVhIjL","man",22,"10-12h","2021-12-18_20h07.54.328","bachelor","2021.2.3","Win32",60.14675809,NA,NA,1,0.3211,0,13,13,21,1,NA,NA,NA,NA,NA,NA,NA,NA,NA,NA,NA,NA,NA,NA,NA,NA,NA,NA,NA,NA,NA,NA,NA,NA,NA,NA,NA,NA,NA,NA,NA,NA,NA,NA,NA,NA,NA,NA,NA,NA,NA,NA,NA,NA,NA,NA,NA,NA,NA,NA,NA,NA,NA,NA,NA,NA,NA,NA,NA,NA,NA,"IwAR3xImbazzl19dIvkz5h8QYXIvcc3lC4Z_PsV1SdYQMWH5693pco-_SvD7M",NA,"human",-0.887278229357071,-1,-0.837579492741983,0.20044115869354,NA,0.183430445319084,-0.887278229357071,NA,0.20044115869354,NA
"93","ambulance",NA,NA,NA,NA,NA,NA,NA,NA,NA,NA,"1","8nSGw4u","man",26,"1-3h","2021-12-06_09h54.23.116","bachelor","2021.2.3","MacIntel",76.92307692,NA,NA,-1,2.56,0,6,6,21,1,NA,NA,NA,NA,NA,NA,NA,NA,NA,NA,NA,NA,NA,NA,NA,NA,NA,NA,NA,NA,NA,NA,NA,NA,NA,NA,NA,NA,NA,NA,NA,NA,NA,NA,NA,NA,NA,NA,NA,NA,NA,NA,NA,NA,NA,NA,NA,NA,NA,NA,NA,NA,NA,NA,NA,NA,NA,NA,NA,NA,NA,"IwAR150sIen65aU5-p66bogaTJxcS7EVsnNekNCpDp4woRLPco0W738Mop-Dw",NA,"human",-0.887278229357071,-1,-0.837579492741983,-0.20044115869354,NA,0.183430445319084,-0.887278229357071,NA,0.20044115869354,NA
"94","ambulance",NA,NA,NA,NA,NA,NA,NA,NA,NA,NA,"0","jYhj9yS","man",20,"10-12h","2021-12-07_19h19.21.114","bachelor","2021.2.3","Win32",59.93407252,NA,NA,1,2.2642,0,13,13,21,1,NA,NA,NA,NA,NA,NA,NA,NA,NA,NA,NA,NA,NA,NA,NA,NA,NA,NA,NA,NA,NA,NA,NA,NA,NA,NA,NA,NA,NA,NA,NA,NA,NA,NA,NA,NA,NA,NA,NA,NA,NA,NA,NA,NA,NA,NA,NA,NA,NA,NA,NA,NA,NA,NA,NA,NA,NA,NA,NA,NA,NA,"IwAR3hMbX0hdVyF1MsQbbo-rjMO46g-dm1Sys-XXHoE16wUwHHlUIfFau-ICk",NA,"human",-0.887278229357071,-1,-0.837579492741983,0.20044115869354,NA,0.183430445319084,-0.887278229357071,NA,0.20044115869354,NA
"95","ambulance",NA,NA,NA,NA,NA,NA,NA,NA,NA,NA,"0","QGVynMl","woman",28,"10-12h","2021-12-12_22h34.04.519","bachelor","2021.2.3","MacIntel",59.99880002,NA,NA,-1,2.8473,0,8,8,21,1,NA,NA,NA,NA,NA,NA,NA,NA,NA,NA,NA,NA,NA,NA,NA,NA,NA,NA,NA,NA,NA,NA,NA,NA,NA,NA,NA,NA,NA,NA,NA,NA,NA,NA,NA,NA,NA,NA,NA,NA,NA,NA,NA,NA,NA,NA,NA,NA,NA,NA,NA,NA,NA,NA,NA,NA,NA,NA,NA,NA,NA,"IwAR1GM1Hb5NvVLdUtLLXx6_cp4lZKlg5jemhIrj8nJ5r0UGBGy7rKYQAj_Us",NA,"human",-0.887278229357071,-1,-0.837579492741983,-0.20044115869354,NA,0.183430445319084,-0.887278229357071,NA,0.20044115869354,NA
"96","ambulance",NA,NA,NA,NA,NA,NA,NA,NA,NA,NA,"1","f8Dzr4d","man",25,"13-15h","2021-12-06_20h12.48.615","bachelor","2021.2.3","Win32",121.0360687,NA,NA,1,1.7255,0,10,10,21,1,NA,NA,NA,NA,NA,NA,NA,NA,NA,NA,NA,NA,NA,NA,NA,NA,NA,NA,NA,NA,NA,NA,NA,NA,NA,NA,NA,NA,NA,NA,NA,NA,NA,NA,NA,NA,NA,NA,NA,NA,NA,NA,NA,NA,NA,NA,NA,NA,NA,NA,NA,NA,NA,NA,NA,NA,NA,NA,NA,NA,NA,"IwAR3S7lrNNfoTUTMyWpqksg8nYfqloK-NxG4GDfI-wZWXqf2-0zXkfG9A7s8",NA,"human",-0.887278229357071,-1,-0.837579492741983,0.20044115869354,NA,0.183430445319084,-0.887278229357071,NA,0.20044115869354,NA
"97","ambulance",NA,NA,NA,NA,NA,NA,NA,NA,NA,NA,"0","5LsI3OC","woman",18,"10-12h","2021-12-01_17h10.38.417","bachelor","2021.2.3","Win32",59.96641881,NA,NA,-1,1.4727,0,25,25,21,1,NA,NA,NA,NA,NA,NA,NA,NA,NA,NA,NA,NA,NA,NA,NA,NA,NA,NA,NA,NA,NA,NA,NA,NA,NA,NA,NA,NA,NA,NA,NA,NA,NA,NA,NA,NA,NA,NA,NA,NA,NA,NA,NA,NA,NA,NA,NA,NA,NA,NA,NA,NA,NA,NA,NA,NA,NA,NA,NA,NA,NA,"IwAR30-zn7PZY6bv_IRc0y2CLUXBFjvoh0_DFK33PzhVQ74YXmRt2v1VZloQE",NA,"human",-0.887278229357071,-1,-0.837579492741983,-0.20044115869354,NA,0.183430445319084,-0.887278229357071,NA,0.20044115869354,NA
"98","ambulance",NA,NA,NA,NA,NA,NA,NA,NA,NA,NA,"0","p9QcJ5B","woman",23,"4-6h","2021-12-06_13h25.11.791","bachelor","2021.2.3","MacIntel",60.0024001,NA,NA,-1,3.926,0,23,23,21,1,NA,NA,NA,NA,NA,NA,NA,NA,NA,NA,NA,NA,NA,NA,NA,NA,NA,NA,NA,NA,NA,NA,NA,NA,NA,NA,NA,NA,NA,NA,NA,NA,NA,NA,NA,NA,NA,NA,NA,NA,NA,NA,NA,NA,NA,NA,NA,NA,NA,NA,NA,NA,NA,NA,NA,NA,NA,NA,NA,NA,NA,NA,NA,"human",-0.887278229357071,-1,-0.837579492741983,-0.20044115869354,NA,0.183430445319084,-0.887278229357071,NA,0.20044115869354,NA
"99","ambulance",NA,NA,NA,NA,NA,NA,NA,NA,NA,NA,"0","b1IodjT","woman",24,"7-9h","2021-12-01_14h36.54.865","bachelor","2021.2.3","Win32",59.59475566,NA,NA,-1,3.5812,0,26,26,21,1,NA,NA,NA,NA,NA,NA,NA,NA,NA,NA,NA,NA,NA,NA,NA,NA,NA,NA,NA,NA,NA,NA,NA,NA,NA,NA,NA,NA,NA,NA,NA,NA,NA,NA,NA,NA,NA,NA,NA,NA,NA,NA,NA,NA,NA,NA,NA,NA,NA,NA,NA,NA,NA,NA,NA,NA,NA,NA,NA,NA,NA,"IwAR3yLSyi89beHyCf_cfZaWvbm-miesleX5fER5oKj6TyDyIddQJS753WqGo",NA,"human",-0.887278229357071,-1,-0.837579492741983,-0.20044115869354,NA,0.183430445319084,-0.887278229357071,NA,0.20044115869354,NA
"100","ambulance",NA,NA,NA,NA,NA,NA,NA,NA,NA,NA,"1","s0995fA","man",34,"1-3h","2021-12-02_06h42.00.524","bachelor","2021.2.3","Win32",60.07810153,NA,NA,1,1.2646,0,24,24,21,1,NA,NA,NA,NA,NA,NA,NA,NA,NA,NA,NA,NA,NA,NA,NA,NA,NA,NA,NA,NA,NA,NA,NA,NA,NA,NA,NA,NA,NA,NA,NA,NA,NA,NA,NA,NA,NA,NA,NA,NA,NA,NA,NA,NA,NA,NA,NA,NA,NA,NA,NA,NA,NA,NA,NA,NA,NA,NA,NA,NA,NA,"IwAR3pSigNbLrHoKkV4D12BnHrO_Vuq-0xay_Bg_EjS5V5AVDe9mklrR_J1Vo",NA,"human",-0.887278229357071,-1,-0.837579492741983,0.20044115869354,NA,0.183430445319084,-0.887278229357071,NA,0.20044115869354,NA
"101","ambulance",NA,NA,NA,NA,NA,NA,NA,NA,NA,NA,"1","vIpIxWv","man",32,"13-15h","2021-12-12_20h42.26.149","bachelor","2021.2.3","Win32",60.20107158,"space",9.7869,-1,2.1007,0,0,0,21,1,NA,NA,NA,NA,NA,NA,NA,NA,NA,NA,NA,NA,NA,NA,NA,NA,NA,NA,NA,NA,NA,NA,NA,NA,NA,NA,NA,NA,NA,NA,NA,NA,NA,NA,NA,NA,NA,NA,NA,NA,NA,NA,NA,NA,NA,NA,NA,NA,NA,NA,NA,NA,NA,NA,NA,NA,NA,NA,NA,NA,NA,NA,NA,"human",-0.887278229357071,-1,-0.837579492741983,-0.20044115869354,NA,0.183430445319084,-0.887278229357071,NA,0.20044115869354,NA
"102","ambulance",NA,NA,NA,NA,NA,NA,NA,NA,NA,NA,"1","0gnVEeX","man",32,"10-12h","2021-12-04_20h31.09.158","bachelor","2021.2.3","MacIntel",58.82352941,NA,NA,-1,3.837,0,6,6,21,1,NA,NA,NA,NA,NA,NA,NA,NA,NA,NA,NA,NA,NA,NA,NA,NA,NA,NA,NA,NA,NA,NA,NA,NA,NA,NA,NA,NA,NA,NA,NA,NA,NA,NA,NA,NA,NA,NA,NA,NA,NA,NA,NA,NA,NA,NA,NA,NA,NA,NA,NA,NA,NA,NA,NA,NA,NA,NA,NA,NA,NA,"IwAR3y99_qi9ZkahrWl2gxbFf1IxdizgmXWHn01GjRv4YStcN-ylfQ7-olS5w",NA,"human",-0.887278229357071,-1,-0.837579492741983,-0.20044115869354,NA,0.183430445319084,-0.887278229357071,NA,0.20044115869354,NA
"103","applause",NA,NA,NA,NA,NA,NA,NA,NA,NA,NA,"1","8nSGw4u","man",26,"1-3h","2021-12-06_09h54.23.116","bachelor","2021.2.3","MacIntel",76.92307692,NA,NA,-1,1.32,0,9,9,27,1,NA,NA,NA,NA,NA,NA,NA,NA,NA,NA,NA,NA,NA,NA,NA,NA,NA,NA,NA,NA,NA,NA,NA,NA,NA,NA,NA,NA,NA,NA,NA,NA,NA,NA,NA,NA,NA,NA,NA,NA,NA,NA,NA,NA,NA,NA,NA,NA,NA,NA,NA,NA,NA,NA,NA,NA,NA,NA,NA,NA,NA,"IwAR150sIen65aU5-p66bogaTJxcS7EVsnNekNCpDp4woRLPco0W738Mop-Dw",NA,"self",-1.55271485347812,-1,-1.1405888676891,-0.0796448529963924,NA,0.0728856834979575,-1.55271485347812,NA,0.0796448529963924,NA
"104","applause",NA,NA,NA,NA,NA,NA,NA,NA,NA,NA,"0","BgAtUlU","man",28,"4-6h","2021-12-12_22h00.21.957","bachelor","2021.2.3","Win32",62.32859636,NA,NA,-1,2.6012,0,23,23,27,1,NA,NA,NA,NA,NA,NA,NA,NA,NA,NA,NA,NA,NA,NA,NA,NA,NA,NA,NA,NA,NA,NA,NA,NA,NA,NA,NA,NA,NA,NA,NA,NA,NA,NA,NA,NA,NA,NA,NA,NA,NA,NA,NA,NA,NA,NA,NA,NA,NA,NA,NA,NA,NA,NA,NA,NA,NA,NA,NA,NA,NA,"IwAR1gvXC1ZrZBSbECAGy5SRDqcszzcH-AaJ9cqEbCeBCZMWrn8WkBKoUzQAI",NA,"self",-1.55271485347812,-1,-1.1405888676891,-0.0796448529963924,NA,0.0728856834979575,-1.55271485347812,NA,0.0796448529963924,NA
"105","applause",NA,NA,NA,NA,NA,NA,NA,NA,NA,NA,"0","jYhj9yS","man",20,"10-12h","2021-12-07_19h19.21.114","bachelor","2021.2.3","Win32",59.93407252,NA,NA,1,1.4925,0,21,21,27,1,NA,NA,NA,NA,NA,NA,NA,NA,NA,NA,NA,NA,NA,NA,NA,NA,NA,NA,NA,NA,NA,NA,NA,NA,NA,NA,NA,NA,NA,NA,NA,NA,NA,NA,NA,NA,NA,NA,NA,NA,NA,NA,NA,NA,NA,NA,NA,NA,NA,NA,NA,NA,NA,NA,NA,NA,NA,NA,NA,NA,NA,"IwAR3hMbX0hdVyF1MsQbbo-rjMO46g-dm1Sys-XXHoE16wUwHHlUIfFau-ICk",NA,"self",-1.55271485347812,-1,-1.1405888676891,0.0796448529963924,NA,0.0728856834979575,-1.55271485347812,NA,0.0796448529963924,NA
"106","applause",NA,NA,NA,NA,NA,NA,NA,NA,NA,NA,"1","0DYUKyQ","woman",33,"7-9h","2021-12-20_14h14.37.099","bachelor","2021.2.3","Win32",59.92329818,NA,NA,-1,3.1212,0,8,8,27,1,NA,NA,NA,NA,NA,NA,NA,NA,NA,NA,NA,NA,NA,NA,NA,NA,NA,NA,NA,NA,NA,NA,NA,NA,NA,NA,NA,NA,NA,NA,NA,NA,NA,NA,NA,NA,NA,NA,NA,NA,NA,NA,NA,NA,NA,NA,NA,NA,NA,NA,NA,NA,NA,NA,NA,NA,NA,NA,NA,NA,NA,NA,NA,"self",-1.55271485347812,-1,-1.1405888676891,-0.0796448529963924,NA,0.0728856834979575,-1.55271485347812,NA,0.0796448529963924,NA
"107","applause",NA,NA,NA,NA,NA,NA,NA,NA,NA,NA,"0","DwugyIr","woman",18,"10-12h","2021-12-01_17h10.38.417","bachelor","2021.2.3","Win32",59.96641881,NA,NA,1,1.6403,0,24,24,27,1,NA,NA,NA,NA,NA,NA,NA,NA,NA,NA,NA,NA,NA,NA,NA,NA,NA,NA,NA,NA,NA,NA,NA,NA,NA,NA,NA,NA,NA,NA,NA,NA,NA,NA,NA,NA,NA,NA,NA,NA,NA,NA,NA,NA,NA,NA,NA,NA,NA,NA,NA,NA,NA,NA,NA,NA,NA,NA,NA,NA,NA,"IwAR30-zn7PZY6bv_IRc0y2CLUXBFjvoh0_DFK33PzhVQ74YXmRt2v1VZloQE",NA,"self",-1.55271485347812,-1,-1.1405888676891,0.0796448529963924,NA,0.0728856834979575,-1.55271485347812,NA,0.0796448529963924,NA
"108","applause",NA,NA,NA,NA,NA,NA,NA,NA,NA,NA,"0","DXfT4CF","woman",33,"4-6h","2021-12-08_09h36.04.523","bachelor","2021.2.3","Win32",60.73858115,NA,NA,1,3.16,0,13,13,27,1,NA,NA,NA,NA,NA,NA,NA,NA,NA,NA,NA,NA,NA,NA,NA,NA,NA,NA,NA,NA,NA,NA,NA,NA,NA,NA,NA,NA,NA,NA,NA,NA,NA,NA,NA,NA,NA,NA,NA,NA,NA,NA,NA,NA,NA,NA,NA,NA,NA,NA,NA,NA,NA,NA,NA,NA,NA,NA,NA,NA,NA,NA,NA,"self",-1.55271485347812,-1,-1.1405888676891,0.0796448529963924,NA,0.0728856834979575,-1.55271485347812,NA,0.0796448529963924,NA
"109","applause",NA,NA,NA,NA,NA,NA,NA,NA,NA,NA,"0","QGVynMl","woman",28,"10-12h","2021-12-12_22h34.04.519","bachelor","2021.2.3","MacIntel",59.99880002,NA,NA,1,1.2474,0,6,6,27,1,NA,NA,NA,NA,NA,NA,NA,NA,NA,NA,NA,NA,NA,NA,NA,NA,NA,NA,NA,NA,NA,NA,NA,NA,NA,NA,NA,NA,NA,NA,NA,NA,NA,NA,NA,NA,NA,NA,NA,NA,NA,NA,NA,NA,NA,NA,NA,NA,NA,NA,NA,NA,NA,NA,NA,NA,NA,NA,NA,NA,NA,"IwAR1GM1Hb5NvVLdUtLLXx6_cp4lZKlg5jemhIrj8nJ5r0UGBGy7rKYQAj_Us",NA,"self",-1.55271485347812,-1,-1.1405888676891,0.0796448529963924,NA,0.0728856834979575,-1.55271485347812,NA,0.0796448529963924,NA
"110","applause",NA,NA,NA,NA,NA,NA,NA,NA,NA,NA,"0","b1IodjT","woman",24,"7-9h","2021-12-01_14h36.54.865","bachelor","2021.2.3","Win32",59.59475566,"space",20.6788,1,3.6198,0,0,0,27,1,NA,NA,NA,NA,NA,NA,NA,NA,NA,NA,NA,NA,NA,NA,NA,NA,NA,NA,NA,NA,NA,NA,NA,NA,NA,NA,NA,NA,NA,NA,NA,NA,NA,NA,NA,NA,NA,NA,NA,NA,NA,NA,NA,NA,NA,NA,NA,NA,NA,NA,NA,NA,NA,NA,NA,NA,NA,NA,NA,NA,NA,"IwAR3yLSyi89beHyCf_cfZaWvbm-miesleX5fER5oKj6TyDyIddQJS753WqGo",NA,"self",-1.55271485347812,-1,-1.1405888676891,0.0796448529963924,NA,0.0728856834979575,-1.55271485347812,NA,0.0796448529963924,NA
"111","applause",NA,NA,NA,NA,NA,NA,NA,NA,NA,NA,"1","zSVhIjL","man",22,"10-12h","2021-12-18_20h07.54.328","bachelor","2021.2.3","Win32",60.14675809,NA,NA,1,0.4555,0,24,24,27,1,NA,NA,NA,NA,NA,NA,NA,NA,NA,NA,NA,NA,NA,NA,NA,NA,NA,NA,NA,NA,NA,NA,NA,NA,NA,NA,NA,NA,NA,NA,NA,NA,NA,NA,NA,NA,NA,NA,NA,NA,NA,NA,NA,NA,NA,NA,NA,NA,NA,NA,NA,NA,NA,NA,NA,NA,NA,NA,NA,NA,NA,"IwAR3xImbazzl19dIvkz5h8QYXIvcc3lC4Z_PsV1SdYQMWH5693pco-_SvD7M",NA,"self",-1.55271485347812,-1,-1.1405888676891,0.0796448529963924,NA,0.0728856834979575,-1.55271485347812,NA,0.0796448529963924,NA
"112","applause",NA,NA,NA,NA,NA,NA,NA,NA,NA,NA,"1","MCbeohB","man",22,"4-6h","2021-12-01_14h15.27.541","bachelor","2021.2.3","Win32",60.91246878,NA,NA,1,1.574,0,23,23,27,1,NA,NA,NA,NA,NA,NA,NA,NA,NA,NA,NA,NA,NA,NA,NA,NA,NA,NA,NA,NA,NA,NA,NA,NA,NA,NA,NA,NA,NA,NA,NA,NA,NA,NA,NA,NA,NA,NA,NA,NA,NA,NA,NA,NA,NA,NA,NA,NA,NA,NA,NA,NA,NA,NA,NA,NA,NA,NA,NA,NA,NA,"IwAR3DabSM8ZhQHYjBm2vYXYKA36WBN4UsyQ7BdumCsNE5xC1DF9JtIZNo0w4",NA,"self",-1.55271485347812,-1,-1.1405888676891,0.0796448529963924,NA,0.0728856834979575,-1.55271485347812,NA,0.0796448529963924,NA
"113","applause",NA,NA,NA,NA,NA,NA,NA,NA,NA,NA,"1","HZp1cq0","woman",21,"7-9h","2021-12-03_17h28.33.208","bachelor","2021.2.3","MacIntel",60.0024001,NA,NA,1,1.6814,0,5,5,27,1,NA,NA,NA,NA,NA,NA,NA,NA,NA,NA,NA,NA,NA,NA,NA,NA,NA,NA,NA,NA,NA,NA,NA,NA,NA,NA,NA,NA,NA,NA,NA,NA,NA,NA,NA,NA,NA,NA,NA,NA,NA,NA,NA,NA,NA,NA,NA,NA,NA,NA,NA,NA,NA,NA,NA,NA,NA,NA,NA,NA,NA,"IwAR34o4hFglqOf5qXH5XZv9Oee1Atpp5NPMmnwmP9_R6x9avrLQti2Cuqt_Y",NA,"self",-1.55271485347812,-1,-1.1405888676891,0.0796448529963924,NA,0.0728856834979575,-1.55271485347812,NA,0.0796448529963924,NA
"114","applause",NA,NA,NA,NA,NA,NA,NA,NA,NA,NA,"0","Wv9bebz","woman",21,"13-15h","2021-12-01_20h47.58.802","bachelor","2021.2.3","MacIntel",71.42857143,NA,NA,-1,2.179,0,19,19,27,1,NA,NA,NA,NA,NA,NA,NA,NA,NA,NA,NA,NA,NA,NA,NA,NA,NA,NA,NA,NA,NA,NA,NA,NA,NA,NA,NA,NA,NA,NA,NA,NA,NA,NA,NA,NA,NA,NA,NA,NA,NA,NA,NA,NA,NA,NA,NA,NA,NA,NA,NA,NA,NA,NA,NA,NA,NA,NA,NA,NA,NA,"IwAR0fIy4rXJbTyGk1qvhlqIHko2JwZHUIjMwkfZhFNfNAb7iLftWId5prvy8",NA,"self",-1.55271485347812,-1,-1.1405888676891,-0.0796448529963924,NA,0.0728856834979575,-1.55271485347812,NA,0.0796448529963924,NA
"115","applause",NA,NA,NA,NA,NA,NA,NA,NA,NA,NA,"1","fzz8ygr","man",26,"16-18h","2021-12-03_21h15.37.122","bachelor","2021.2.3","Win32",59.97001499,NA,NA,1,2.1709,0,7,7,27,1,NA,NA,NA,NA,NA,NA,NA,NA,NA,NA,NA,NA,NA,NA,NA,NA,NA,NA,NA,NA,NA,NA,NA,NA,NA,NA,NA,NA,NA,NA,NA,NA,NA,NA,NA,NA,NA,NA,NA,NA,NA,NA,NA,NA,NA,NA,NA,NA,NA,NA,NA,NA,NA,NA,NA,NA,NA,NA,NA,NA,NA,"IwAR17Lusyd9utx4WzBryBumfKoHJdoNPWIBJiLZ5sTws4ihTeQKsMUorjwHs",NA,"self",-1.55271485347812,-1,-1.1405888676891,0.0796448529963924,NA,0.0728856834979575,-1.55271485347812,NA,0.0796448529963924,NA
"116","applause",NA,NA,NA,NA,NA,NA,NA,NA,NA,NA,"0","tITnv3Z","woman",21,"1-3h","2021-12-06_10h51.55.444","bachelor","2021.2.3","MacIntel",60.0024001,NA,NA,-1,1.3331,0,22,22,27,1,NA,NA,NA,NA,NA,NA,NA,NA,NA,NA,NA,NA,NA,NA,NA,NA,NA,NA,NA,NA,NA,NA,NA,NA,NA,NA,NA,NA,NA,NA,NA,NA,NA,NA,NA,NA,NA,NA,NA,NA,NA,NA,NA,NA,NA,NA,NA,NA,NA,NA,NA,NA,NA,NA,NA,NA,NA,NA,NA,NA,NA,"IwAR2b37PvDE92fbWKCZSags7V8ETFVid47-yhywKOffvfuWcT_9Kwk0wFAuI",NA,"self",-1.55271485347812,-1,-1.1405888676891,-0.0796448529963924,NA,0.0728856834979575,-1.55271485347812,NA,0.0796448529963924,NA
"117","applause",NA,NA,NA,NA,NA,NA,NA,NA,NA,NA,"1","qs7FYRk","man",27,"13-15h","2021-12-02_21h08.39.749","bachelor","2021.2.3","Win32",59.99880002,NA,NA,1,0.8718,0,22,22,27,1,NA,NA,NA,NA,NA,NA,NA,NA,NA,NA,NA,NA,NA,NA,NA,NA,NA,NA,NA,NA,NA,NA,NA,NA,NA,NA,NA,NA,NA,NA,NA,NA,NA,NA,NA,NA,NA,NA,NA,NA,NA,NA,NA,NA,NA,NA,NA,NA,NA,NA,NA,NA,NA,NA,NA,NA,NA,NA,NA,NA,NA,"IwAR2wFWkhAttIX2us655vg4wXxSR46FU7qlyNXrNrDCe1QtEw46K5sxflouw",NA,"self",-1.55271485347812,-1,-1.1405888676891,0.0796448529963924,NA,0.0728856834979575,-1.55271485347812,NA,0.0796448529963924,NA
"118","applause",NA,NA,NA,NA,NA,NA,NA,NA,NA,NA,"0","p9QcJ5B","woman",23,"4-6h","2021-12-06_13h25.11.791","bachelor","2021.2.3","MacIntel",60.0024001,NA,NA,1,6.3972,0,1,1,27,1,NA,NA,NA,NA,NA,NA,NA,NA,NA,NA,NA,NA,NA,NA,NA,NA,NA,NA,NA,NA,NA,NA,NA,NA,NA,NA,NA,NA,NA,NA,NA,NA,NA,NA,NA,NA,NA,NA,NA,NA,NA,NA,NA,NA,NA,NA,NA,NA,NA,NA,NA,NA,NA,NA,NA,NA,NA,NA,NA,NA,NA,NA,NA,"self",-1.55271485347812,-1,-1.1405888676891,0.0796448529963924,NA,0.0728856834979575,-1.55271485347812,NA,0.0796448529963924,NA
"119","applause",NA,NA,NA,NA,NA,NA,NA,NA,NA,NA,"1","ckBIX57","woman",32,"4-6h","2021-12-04_20h54.45.847","bachelor","2021.2.3","MacIntel",58.82352941,NA,NA,1,1.179,0,7,7,27,1,NA,NA,NA,NA,NA,NA,NA,NA,NA,NA,NA,NA,NA,NA,NA,NA,NA,NA,NA,NA,NA,NA,NA,NA,NA,NA,NA,NA,NA,NA,NA,NA,NA,NA,NA,NA,NA,NA,NA,NA,NA,NA,NA,NA,NA,NA,NA,NA,NA,NA,NA,NA,NA,NA,NA,NA,NA,NA,NA,NA,NA,"IwAR1XnQd6Ia16RXHb8MRvMwbxGnGWK4DGcnByoOoi_uEyfvFe2aaF7JGEQX8",NA,"self",-1.55271485347812,-1,-1.1405888676891,0.0796448529963924,NA,0.0728856834979575,-1.55271485347812,NA,0.0796448529963924,NA
"120","applause",NA,NA,NA,NA,NA,NA,NA,NA,NA,NA,"0","AZ3Gg7G","man",24,"4-6h","2021-12-11_18h10.46.274","bachelor","2021.2.3","Win32",60.29181237,NA,NA,1,1.6898,0,12,12,27,1,NA,NA,NA,NA,NA,NA,NA,NA,NA,NA,NA,NA,NA,NA,NA,NA,NA,NA,NA,NA,NA,NA,NA,NA,NA,NA,NA,NA,NA,NA,NA,NA,NA,NA,NA,NA,NA,NA,NA,NA,NA,NA,NA,NA,NA,NA,NA,NA,NA,NA,NA,NA,NA,NA,NA,NA,NA,NA,NA,NA,NA,"IwAR2Q7jZKIq7PnqEC-VFvwAdnbxakit3fX_VvYV9IJgwedJLOMhHyzayGzxI",NA,"self",-1.55271485347812,-1,-1.1405888676891,0.0796448529963924,NA,0.0728856834979575,-1.55271485347812,NA,0.0796448529963924,NA
"121","applause",NA,NA,NA,NA,NA,NA,NA,NA,NA,NA,"1","wbVg3iX","woman",24,"4-6h","2021-12-04_12h48.41.699","bachelor","2021.2.3","Win32",59.69080165,NA,NA,-1,2.1786,0,6,6,27,1,NA,NA,NA,NA,NA,NA,NA,NA,NA,NA,NA,NA,NA,NA,NA,NA,NA,NA,NA,NA,NA,NA,NA,NA,NA,NA,NA,NA,NA,NA,NA,NA,NA,NA,NA,NA,NA,NA,NA,NA,NA,NA,NA,NA,NA,NA,NA,NA,NA,NA,NA,NA,NA,NA,NA,NA,NA,NA,NA,NA,NA,"IwAR1U9sv7jt6-VzaoK-jLrG5svuDWOPsE4OrmrlNSodsVR0DslIWgxoNfjnw",NA,"self",-1.55271485347812,-1,-1.1405888676891,-0.0796448529963924,NA,0.0728856834979575,-1.55271485347812,NA,0.0796448529963924,NA
"122","applause",NA,NA,NA,NA,NA,NA,NA,NA,NA,NA,"1","4kZA5NH","other",22,"4-6h","2021-12-08_14h02.11.847","bachelor","2021.2.3","Win32",60.07088364,"space",23.3204,-1,3.6591,0,0,0,27,1,NA,NA,NA,NA,NA,NA,NA,NA,NA,NA,NA,NA,NA,NA,NA,NA,NA,NA,NA,NA,NA,NA,NA,NA,NA,NA,NA,NA,NA,NA,NA,NA,NA,NA,NA,NA,NA,NA,NA,NA,NA,NA,NA,NA,NA,NA,NA,NA,NA,NA,NA,NA,NA,NA,NA,NA,NA,NA,NA,NA,NA,NA,NA,"self",-1.55271485347812,-1,-1.1405888676891,-0.0796448529963924,NA,0.0728856834979575,-1.55271485347812,NA,0.0796448529963924,NA
"123","applause",NA,NA,NA,NA,NA,NA,NA,NA,NA,NA,"1","f8Dzr4d","man",25,"13-15h","2021-12-06_20h12.48.615","bachelor","2021.2.3","Win32",121.0360687,"space",11.6941,1,7.8331,0,0,0,27,1,NA,NA,NA,NA,NA,NA,NA,NA,NA,NA,NA,NA,NA,NA,NA,NA,NA,NA,NA,NA,NA,NA,NA,NA,NA,NA,NA,NA,NA,NA,NA,NA,NA,NA,NA,NA,NA,NA,NA,NA,NA,NA,NA,NA,NA,NA,NA,NA,NA,NA,NA,NA,NA,NA,NA,NA,NA,NA,NA,NA,NA,"IwAR3S7lrNNfoTUTMyWpqksg8nYfqloK-NxG4GDfI-wZWXqf2-0zXkfG9A7s8",NA,"self",-1.55271485347812,-1,-1.1405888676891,0.0796448529963924,NA,0.0728856834979575,-1.55271485347812,NA,0.0796448529963924,NA
"124","applause",NA,NA,NA,NA,NA,NA,NA,NA,NA,NA,"1","47ET5VW","man",62,"13-15h","2021-12-01_19h27.11.254","bachelor","2021.2.3","Linux x86_64",60.24096386,NA,NA,1,1.658,0,12,12,27,1,NA,NA,NA,NA,NA,NA,NA,NA,NA,NA,NA,NA,NA,NA,NA,NA,NA,NA,NA,NA,NA,NA,NA,NA,NA,NA,NA,NA,NA,NA,NA,NA,NA,NA,NA,NA,NA,NA,NA,NA,NA,NA,NA,NA,NA,NA,NA,NA,NA,NA,NA,NA,NA,NA,NA,NA,NA,NA,NA,NA,NA,"IwAR0tjWKiBxmHLcYRcP0SeJ-U7zvS610UMRRXS4iJiq3FGl7xf4F0rqWTfgo",NA,"self",-1.55271485347812,-1,-1.1405888676891,0.0796448529963924,NA,0.0728856834979575,-1.55271485347812,NA,0.0796448529963924,NA
"125","applause",NA,NA,NA,NA,NA,NA,NA,NA,NA,NA,"1","oqaT2rf","man",24,"10-12h","2021-12-02_20h49.38.753","bachelor","2021.2.3","Win32",60.0132029,NA,NA,-1,1.5186,0,9,9,27,1,NA,NA,NA,NA,NA,NA,NA,NA,NA,NA,NA,NA,NA,NA,NA,NA,NA,NA,NA,NA,NA,NA,NA,NA,NA,NA,NA,NA,NA,NA,NA,NA,NA,NA,NA,NA,NA,NA,NA,NA,NA,NA,NA,NA,NA,NA,NA,NA,NA,NA,NA,NA,NA,NA,NA,NA,NA,NA,NA,NA,NA,"IwAR2QXWwh8gZK1koYfP-KWOSWoIu4Ii1ih1T5WzlYDBDafJno2SPmhK0a36w",NA,"self",-1.55271485347812,-1,-1.1405888676891,-0.0796448529963924,NA,0.0728856834979575,-1.55271485347812,NA,0.0796448529963924,NA
"126","applause",NA,NA,NA,NA,NA,NA,NA,NA,NA,NA,"0","ezKRId9","woman",35,"7-9h","2021-12-18_08h42.56.536","bachelor","2021.2.3","Win32",60.70908208,NA,NA,1,1.3361,0,16,16,27,1,NA,NA,NA,NA,NA,NA,NA,NA,NA,NA,NA,NA,NA,NA,NA,NA,NA,NA,NA,NA,NA,NA,NA,NA,NA,NA,NA,NA,NA,NA,NA,NA,NA,NA,NA,NA,NA,NA,NA,NA,NA,NA,NA,NA,NA,NA,NA,NA,NA,NA,NA,NA,NA,NA,NA,NA,NA,NA,NA,NA,NA,"IwAR2y5zX-biLucKujY29B_pMPr-qJWH8yualuXXoON_tRCg637kR1zjPuUhw",NA,"self",-1.55271485347812,-1,-1.1405888676891,0.0796448529963924,NA,0.0728856834979575,-1.55271485347812,NA,0.0796448529963924,NA
"127","applause",NA,NA,NA,NA,NA,NA,NA,NA,NA,NA,"0","5LsI3OC","woman",18,"10-12h","2021-12-01_17h10.38.417","bachelor","2021.2.3","Win32",59.96641881,NA,NA,1,1.6403,0,24,24,27,1,NA,NA,NA,NA,NA,NA,NA,NA,NA,NA,NA,NA,NA,NA,NA,NA,NA,NA,NA,NA,NA,NA,NA,NA,NA,NA,NA,NA,NA,NA,NA,NA,NA,NA,NA,NA,NA,NA,NA,NA,NA,NA,NA,NA,NA,NA,NA,NA,NA,NA,NA,NA,NA,NA,NA,NA,NA,NA,NA,NA,NA,"IwAR30-zn7PZY6bv_IRc0y2CLUXBFjvoh0_DFK33PzhVQ74YXmRt2v1VZloQE",NA,"self",-1.55271485347812,-1,-1.1405888676891,0.0796448529963924,NA,0.0728856834979575,-1.55271485347812,NA,0.0796448529963924,NA
"128","applause",NA,NA,NA,NA,NA,NA,NA,NA,NA,NA,"0","0VxhYv0","woman",55,"13-15h","2021-12-01_18h17.01.983","bachelor","2021.2.3","Win32",59.97720866,NA,NA,-1,3.3465,0,11,11,27,1,NA,NA,NA,NA,NA,NA,NA,NA,NA,NA,NA,NA,NA,NA,NA,NA,NA,NA,NA,NA,NA,NA,NA,NA,NA,NA,NA,NA,NA,NA,NA,NA,NA,NA,NA,NA,NA,NA,NA,NA,NA,NA,NA,NA,NA,NA,NA,NA,NA,NA,NA,NA,NA,NA,NA,NA,NA,NA,NA,NA,NA,"IwAR17qf7l86_vGeALSJIKtFoHMA7mopAJZoSjWr-_cb06VjDcpPVyj6Sd0BM",NA,"self",-1.55271485347812,-1,-1.1405888676891,-0.0796448529963924,NA,0.0728856834979575,-1.55271485347812,NA,0.0796448529963924,NA
"129","applause",NA,NA,NA,NA,NA,NA,NA,NA,NA,NA,"1","0gnVEeX","man",32,"10-12h","2021-12-04_20h31.09.158","bachelor","2021.2.3","MacIntel",58.82352941,NA,NA,-1,1.978,0,17,17,27,1,NA,NA,NA,NA,NA,NA,NA,NA,NA,NA,NA,NA,NA,NA,NA,NA,NA,NA,NA,NA,NA,NA,NA,NA,NA,NA,NA,NA,NA,NA,NA,NA,NA,NA,NA,NA,NA,NA,NA,NA,NA,NA,NA,NA,NA,NA,NA,NA,NA,NA,NA,NA,NA,NA,NA,NA,NA,NA,NA,NA,NA,"IwAR3y99_qi9ZkahrWl2gxbFf1IxdizgmXWHn01GjRv4YStcN-ylfQ7-olS5w",NA,"self",-1.55271485347812,-1,-1.1405888676891,-0.0796448529963924,NA,0.0728856834979575,-1.55271485347812,NA,0.0796448529963924,NA
"130","applause",NA,NA,NA,NA,NA,NA,NA,NA,NA,NA,"1","i5cHQii","man",29,"10-12h","2021-12-12_19h50.13.908","bachelor","2021.2.3","MacIntel",59.99520038,NA,NA,-1,1.7146,0,13,13,27,1,NA,NA,NA,NA,NA,NA,NA,NA,NA,NA,NA,NA,NA,NA,NA,NA,NA,NA,NA,NA,NA,NA,NA,NA,NA,NA,NA,NA,NA,NA,NA,NA,NA,NA,NA,NA,NA,NA,NA,NA,NA,NA,NA,NA,NA,NA,NA,NA,NA,NA,NA,NA,NA,NA,NA,NA,NA,NA,NA,NA,NA,"IwAR3vCExL7aXYkCwXCqqHvy-ugvf5lrmEJP15zVtYiR2S6nevJHXbXgMcXro",NA,"self",-1.55271485347812,-1,-1.1405888676891,-0.0796448529963924,NA,0.0728856834979575,-1.55271485347812,NA,0.0796448529963924,NA
"131","applause",NA,NA,NA,NA,NA,NA,NA,NA,NA,NA,"1","HHBgo2G","woman",22,"1-3h","2021-12-03_11h04.32.672","bachelor","2021.2.3","MacIntel",30.00120005,NA,NA,-1,2.8311,0,13,13,27,1,NA,NA,NA,NA,NA,NA,NA,NA,NA,NA,NA,NA,NA,NA,NA,NA,NA,NA,NA,NA,NA,NA,NA,NA,NA,NA,NA,NA,NA,NA,NA,NA,NA,NA,NA,NA,NA,NA,NA,NA,NA,NA,NA,NA,NA,NA,NA,NA,NA,NA,NA,NA,NA,NA,NA,NA,NA,NA,NA,NA,NA,"IwAR0o3eiIlnvz5EHBbfqJQmODO2Dw_NiUT4VAvKbD3V8DH5-ZWROQ0FoOZfU",NA,"self",-1.55271485347812,-1,-1.1405888676891,-0.0796448529963924,NA,0.0728856834979575,-1.55271485347812,NA,0.0796448529963924,NA
"132","applause",NA,NA,NA,NA,NA,NA,NA,NA,NA,NA,"0","FcQYQIm","man",24,"7-9h","2021-12-06_20h23.58.551","bachelor","2021.2.3","MacIntel",58.82352941,NA,NA,1,1.449,0,17,17,27,1,NA,NA,NA,NA,NA,NA,NA,NA,NA,NA,NA,NA,NA,NA,NA,NA,NA,NA,NA,NA,NA,NA,NA,NA,NA,NA,NA,NA,NA,NA,NA,NA,NA,NA,NA,NA,NA,NA,NA,NA,NA,NA,NA,NA,NA,NA,NA,NA,NA,NA,NA,NA,NA,NA,NA,NA,NA,NA,NA,NA,NA,"IwAR08BE4J92EyYVh4OdBtUtbPLHO2nJ7VIy3dZEFJss6joWhAPq22kb2nxKc",NA,"self",-1.55271485347812,-1,-1.1405888676891,0.0796448529963924,NA,0.0728856834979575,-1.55271485347812,NA,0.0796448529963924,NA
"133","applause",NA,NA,NA,NA,NA,NA,NA,NA,NA,NA,"1","s0995fA","man",34,"1-3h","2021-12-02_06h42.00.524","bachelor","2021.2.3","Win32",60.07810153,NA,NA,1,1.1581,0,19,19,27,1,NA,NA,NA,NA,NA,NA,NA,NA,NA,NA,NA,NA,NA,NA,NA,NA,NA,NA,NA,NA,NA,NA,NA,NA,NA,NA,NA,NA,NA,NA,NA,NA,NA,NA,NA,NA,NA,NA,NA,NA,NA,NA,NA,NA,NA,NA,NA,NA,NA,NA,NA,NA,NA,NA,NA,NA,NA,NA,NA,NA,NA,"IwAR3pSigNbLrHoKkV4D12BnHrO_Vuq-0xay_Bg_EjS5V5AVDe9mklrR_J1Vo",NA,"self",-1.55271485347812,-1,-1.1405888676891,0.0796448529963924,NA,0.0728856834979575,-1.55271485347812,NA,0.0796448529963924,NA
"134","applause",NA,NA,NA,NA,NA,NA,NA,NA,NA,NA,"0","vJxGHLu","man",23,"4-6h","2021-12-11_13h54.49.366","bachelor","2021.2.3","Win32",59.89458553,NA,NA,1,3.032,0,14,14,27,1,NA,NA,NA,NA,NA,NA,NA,NA,NA,NA,NA,NA,NA,NA,NA,NA,NA,NA,NA,NA,NA,NA,NA,NA,NA,NA,NA,NA,NA,NA,NA,NA,NA,NA,NA,NA,NA,NA,NA,NA,NA,NA,NA,NA,NA,NA,NA,NA,NA,NA,NA,NA,NA,NA,NA,NA,NA,NA,NA,NA,NA,NA,NA,"self",-1.55271485347812,-1,-1.1405888676891,0.0796448529963924,NA,0.0728856834979575,-1.55271485347812,NA,0.0796448529963924,NA
"135","applause",NA,NA,NA,NA,NA,NA,NA,NA,NA,NA,"1","vIpIxWv","man",32,"13-15h","2021-12-12_20h42.26.149","bachelor","2021.2.3","Win32",60.20107158,NA,NA,-1,3.7921,0,12,12,27,1,NA,NA,NA,NA,NA,NA,NA,NA,NA,NA,NA,NA,NA,NA,NA,NA,NA,NA,NA,NA,NA,NA,NA,NA,NA,NA,NA,NA,NA,NA,NA,NA,NA,NA,NA,NA,NA,NA,NA,NA,NA,NA,NA,NA,NA,NA,NA,NA,NA,NA,NA,NA,NA,NA,NA,NA,NA,NA,NA,NA,NA,NA,NA,"self",-1.55271485347812,-1,-1.1405888676891,-0.0796448529963924,NA,0.0728856834979575,-1.55271485347812,NA,0.0796448529963924,NA
"136","applause",NA,NA,NA,NA,NA,NA,NA,NA,NA,NA,"0","JVY7jCo","woman",22,"1-3h","2021-12-02_09h47.18.198","bachelor","2021.2.3","Win32",59.9268892,NA,NA,1,2.9461,0,2,2,27,1,NA,NA,NA,NA,NA,NA,NA,NA,NA,NA,NA,NA,NA,NA,NA,NA,NA,NA,NA,NA,NA,NA,NA,NA,NA,NA,NA,NA,NA,NA,NA,NA,NA,NA,NA,NA,NA,NA,NA,NA,NA,NA,NA,NA,NA,NA,NA,NA,NA,NA,NA,NA,NA,NA,NA,NA,NA,NA,NA,NA,NA,"IwAR1d1TKlMt1yzBDY5woBuInyc2XF-19_z_l9N1cMfEXg579fCM0azRbEP2k",NA,"self",-1.55271485347812,-1,-1.1405888676891,0.0796448529963924,NA,0.0728856834979575,-1.55271485347812,NA,0.0796448529963924,NA
"137","ate",NA,NA,NA,NA,NA,NA,NA,NA,NA,NA,"0","BgAtUlU","man",28,"4-6h","2021-12-12_22h00.21.957","bachelor","2021.2.3","Win32",62.32859636,NA,NA,NA,NA,NA,NA,NA,NA,NA,NA,NA,NA,NA,NA,NA,NA,NA,NA,NA,NA,NA,NA,NA,NA,NA,NA,NA,NA,NA,NA,NA,NA,NA,NA,NA,NA,NA,NA,NA,NA,NA,NA,NA,NA,NA,NA,NA,NA,NA,-1,20.3833,0,7,7,4,1,NA,NA,NA,NA,NA,NA,NA,NA,NA,NA,NA,NA,NA,NA,"IwAR1gvXC1ZrZBSbECAGy5SRDqcszzcH-AaJ9cqEbCeBCZMWrn8WkBKoUzQAI",NA,"self",2.78364741168099,1,0.833991989271811,NA,-0.787417978517245,0.793258017084657,NA,2.78364741168099,NA,0.787417978517245
"138","ate",NA,NA,NA,NA,NA,NA,NA,NA,NA,NA,"0","0VxhYv0","woman",55,"13-15h","2021-12-01_18h17.01.983","bachelor","2021.2.3","Win32",59.97720866,NA,NA,NA,NA,NA,NA,NA,NA,NA,NA,NA,NA,NA,NA,NA,NA,NA,NA,NA,NA,NA,NA,NA,NA,NA,NA,NA,NA,NA,NA,NA,NA,NA,NA,NA,NA,NA,NA,NA,NA,NA,NA,NA,NA,NA,NA,NA,NA,NA,1,1.2879,0,17,17,4,1,NA,NA,NA,NA,NA,NA,NA,NA,NA,NA,NA,NA,NA,NA,"IwAR17qf7l86_vGeALSJIKtFoHMA7mopAJZoSjWr-_cb06VjDcpPVyj6Sd0BM",NA,"self",2.78364741168099,1,0.833991989271811,NA,0.787417978517245,0.793258017084657,NA,2.78364741168099,NA,0.787417978517245
"139","ate",NA,NA,NA,NA,NA,NA,NA,NA,NA,NA,"0","JVY7jCo","woman",22,"1-3h","2021-12-02_09h47.18.198","bachelor","2021.2.3","Win32",59.9268892,NA,NA,NA,NA,NA,NA,NA,NA,NA,NA,NA,NA,NA,NA,NA,NA,NA,NA,NA,NA,NA,NA,NA,NA,NA,NA,NA,NA,NA,NA,NA,NA,NA,NA,NA,NA,NA,NA,NA,NA,NA,NA,NA,NA,NA,NA,NA,NA,NA,-1,0.6134,0,4,4,4,1,NA,NA,NA,NA,NA,NA,NA,NA,NA,NA,NA,NA,NA,NA,"IwAR1d1TKlMt1yzBDY5woBuInyc2XF-19_z_l9N1cMfEXg579fCM0azRbEP2k",NA,"self",2.78364741168099,1,0.833991989271811,NA,-0.787417978517245,0.793258017084657,NA,2.78364741168099,NA,0.787417978517245
"140","ate",NA,NA,NA,NA,NA,NA,NA,NA,NA,NA,"0","b1IodjT","woman",24,"7-9h","2021-12-01_14h36.54.865","bachelor","2021.2.3","Win32",59.59475566,NA,NA,NA,NA,NA,NA,NA,NA,NA,NA,NA,NA,NA,NA,NA,NA,NA,NA,NA,NA,NA,NA,NA,NA,NA,NA,NA,NA,NA,NA,NA,NA,NA,NA,NA,NA,NA,NA,NA,NA,NA,NA,NA,NA,NA,NA,NA,NA,NA,-1,9.2016,0,4,4,4,1,NA,NA,NA,NA,NA,NA,NA,NA,NA,NA,NA,NA,NA,NA,"IwAR3yLSyi89beHyCf_cfZaWvbm-miesleX5fER5oKj6TyDyIddQJS753WqGo",NA,"self",2.78364741168099,1,0.833991989271811,NA,-0.787417978517245,0.793258017084657,NA,2.78364741168099,NA,0.787417978517245
"141","ate",NA,NA,NA,NA,NA,NA,NA,NA,NA,NA,"1","47ET5VW","man",62,"13-15h","2021-12-01_19h27.11.254","bachelor","2021.2.3","Linux x86_64",60.24096386,NA,NA,NA,NA,NA,NA,NA,NA,NA,NA,NA,NA,NA,NA,NA,NA,NA,NA,NA,NA,NA,NA,NA,NA,NA,NA,NA,NA,NA,NA,NA,NA,NA,NA,NA,NA,NA,NA,NA,NA,NA,NA,NA,NA,NA,NA,NA,NA,NA,1,1.394,0,1,1,4,1,NA,NA,NA,NA,NA,NA,NA,NA,NA,NA,NA,NA,NA,NA,"IwAR0tjWKiBxmHLcYRcP0SeJ-U7zvS610UMRRXS4iJiq3FGl7xf4F0rqWTfgo",NA,"self",2.78364741168099,1,0.833991989271811,NA,0.787417978517245,0.793258017084657,NA,2.78364741168099,NA,0.787417978517245
"142","ate",NA,NA,NA,NA,NA,NA,NA,NA,NA,NA,"0","DwugyIr","woman",18,"10-12h","2021-12-01_17h10.38.417","bachelor","2021.2.3","Win32",59.96641881,NA,NA,NA,NA,NA,NA,NA,NA,NA,NA,NA,NA,NA,NA,NA,NA,NA,NA,NA,NA,NA,NA,NA,NA,NA,NA,NA,NA,NA,NA,NA,NA,NA,NA,NA,NA,NA,NA,NA,NA,NA,NA,NA,NA,NA,NA,NA,NA,NA,-1,2.0675,0,21,21,4,1,NA,NA,NA,NA,NA,NA,NA,NA,NA,NA,NA,NA,NA,NA,"IwAR30-zn7PZY6bv_IRc0y2CLUXBFjvoh0_DFK33PzhVQ74YXmRt2v1VZloQE",NA,"self",2.78364741168099,1,0.833991989271811,NA,-0.787417978517245,0.793258017084657,NA,2.78364741168099,NA,0.787417978517245
"143","ate",NA,NA,NA,NA,NA,NA,NA,NA,NA,NA,"1","s0995fA","man",34,"1-3h","2021-12-02_06h42.00.524","bachelor","2021.2.3","Win32",60.07810153,NA,NA,NA,NA,NA,NA,NA,NA,NA,NA,NA,NA,NA,NA,NA,NA,NA,NA,NA,NA,NA,NA,NA,NA,NA,NA,NA,NA,NA,NA,NA,NA,NA,NA,NA,NA,NA,NA,NA,NA,NA,NA,NA,NA,NA,NA,NA,NA,NA,1,1.1654,0,19,19,4,1,NA,NA,NA,NA,NA,NA,NA,NA,NA,NA,NA,NA,NA,NA,"IwAR3pSigNbLrHoKkV4D12BnHrO_Vuq-0xay_Bg_EjS5V5AVDe9mklrR_J1Vo",NA,"self",2.78364741168099,1,0.833991989271811,NA,0.787417978517245,0.793258017084657,NA,2.78364741168099,NA,0.787417978517245
"144","ate",NA,NA,NA,NA,NA,NA,NA,NA,NA,NA,"1","ckBIX57","woman",32,"4-6h","2021-12-04_20h54.45.847","bachelor","2021.2.3","MacIntel",58.82352941,NA,NA,NA,NA,NA,NA,NA,NA,NA,NA,NA,NA,NA,NA,NA,NA,NA,NA,NA,NA,NA,NA,NA,NA,NA,NA,NA,NA,NA,NA,NA,NA,NA,NA,NA,NA,NA,NA,NA,NA,NA,NA,NA,NA,NA,NA,NA,NA,NA,-1,1.977,0,9,9,4,1,NA,NA,NA,NA,NA,NA,NA,NA,NA,NA,NA,NA,NA,NA,"IwAR1XnQd6Ia16RXHb8MRvMwbxGnGWK4DGcnByoOoi_uEyfvFe2aaF7JGEQX8",NA,"self",2.78364741168099,1,0.833991989271811,NA,-0.787417978517245,0.793258017084657,NA,2.78364741168099,NA,0.787417978517245
"145","ate",NA,NA,NA,NA,NA,NA,NA,NA,NA,NA,"1","0gnVEeX","man",32,"10-12h","2021-12-04_20h31.09.158","bachelor","2021.2.3","MacIntel",58.82352941,NA,NA,NA,NA,NA,NA,NA,NA,NA,NA,NA,NA,NA,NA,NA,NA,NA,NA,NA,NA,NA,NA,NA,NA,NA,NA,NA,NA,NA,NA,NA,NA,NA,NA,NA,NA,NA,NA,NA,NA,NA,NA,NA,NA,NA,NA,NA,NA,NA,-1,2.166,0,6,6,4,1,NA,NA,NA,NA,NA,NA,NA,NA,NA,NA,NA,NA,NA,NA,"IwAR3y99_qi9ZkahrWl2gxbFf1IxdizgmXWHn01GjRv4YStcN-ylfQ7-olS5w",NA,"self",2.78364741168099,1,0.833991989271811,NA,-0.787417978517245,0.793258017084657,NA,2.78364741168099,NA,0.787417978517245
"146","ate",NA,NA,NA,NA,NA,NA,NA,NA,NA,NA,"0","FcQYQIm","man",24,"7-9h","2021-12-06_20h23.58.551","bachelor","2021.2.3","MacIntel",58.82352941,NA,NA,NA,NA,NA,NA,NA,NA,NA,NA,NA,NA,NA,NA,NA,NA,NA,NA,NA,NA,NA,NA,NA,NA,NA,NA,NA,NA,NA,NA,NA,NA,NA,NA,NA,NA,NA,NA,NA,NA,NA,NA,NA,NA,NA,NA,NA,NA,NA,1,1.363,0,20,20,4,1,NA,NA,NA,NA,NA,NA,NA,NA,NA,NA,NA,NA,NA,NA,"IwAR08BE4J92EyYVh4OdBtUtbPLHO2nJ7VIy3dZEFJss6joWhAPq22kb2nxKc",NA,"self",2.78364741168099,1,0.833991989271811,NA,0.787417978517245,0.793258017084657,NA,2.78364741168099,NA,0.787417978517245
"147","ate",NA,NA,NA,NA,NA,NA,NA,NA,NA,NA,"0","p9QcJ5B","woman",23,"4-6h","2021-12-06_13h25.11.791","bachelor","2021.2.3","MacIntel",60.0024001,NA,NA,NA,NA,NA,NA,NA,NA,NA,NA,NA,NA,NA,NA,NA,NA,NA,NA,NA,NA,NA,NA,NA,NA,NA,NA,NA,NA,NA,NA,NA,NA,NA,NA,NA,NA,NA,NA,NA,NA,NA,NA,NA,NA,NA,NA,NA,NA,NA,1,2.5565,0,10,10,4,1,NA,NA,NA,NA,NA,NA,NA,NA,NA,NA,NA,NA,NA,NA,NA,NA,"self",2.78364741168099,1,0.833991989271811,NA,0.787417978517245,0.793258017084657,NA,2.78364741168099,NA,0.787417978517245
"148","ate",NA,NA,NA,NA,NA,NA,NA,NA,NA,NA,"1","4kZA5NH","other",22,"4-6h","2021-12-08_14h02.11.847","bachelor","2021.2.3","Win32",60.07088364,NA,NA,NA,NA,NA,NA,NA,NA,NA,NA,NA,NA,NA,NA,NA,NA,NA,NA,NA,NA,NA,NA,NA,NA,NA,NA,NA,NA,NA,NA,NA,NA,NA,NA,NA,NA,NA,NA,NA,NA,NA,NA,NA,NA,NA,NA,NA,NA,NA,1,2.08,0,12,12,4,1,NA,NA,NA,NA,NA,NA,NA,NA,NA,NA,NA,NA,NA,NA,NA,NA,"self",2.78364741168099,1,0.833991989271811,NA,0.787417978517245,0.793258017084657,NA,2.78364741168099,NA,0.787417978517245
"149","ate",NA,NA,NA,NA,NA,NA,NA,NA,NA,NA,"1","wbVg3iX","woman",24,"4-6h","2021-12-04_12h48.41.699","bachelor","2021.2.3","Win32",59.69080165,NA,NA,NA,NA,NA,NA,NA,NA,NA,NA,NA,NA,NA,NA,NA,NA,NA,NA,NA,NA,NA,NA,NA,NA,NA,NA,NA,NA,NA,NA,NA,NA,NA,NA,NA,NA,NA,NA,NA,NA,NA,NA,NA,NA,NA,NA,NA,NA,NA,1,0.9443,0,15,15,4,1,NA,NA,NA,NA,NA,NA,NA,NA,NA,NA,NA,NA,NA,NA,"IwAR1U9sv7jt6-VzaoK-jLrG5svuDWOPsE4OrmrlNSodsVR0DslIWgxoNfjnw",NA,"self",2.78364741168099,1,0.833991989271811,NA,0.787417978517245,0.793258017084657,NA,2.78364741168099,NA,0.787417978517245
"150","ate",NA,NA,NA,NA,NA,NA,NA,NA,NA,NA,"1","HHBgo2G","woman",22,"1-3h","2021-12-03_11h04.32.672","bachelor","2021.2.3","MacIntel",30.00120005,NA,NA,NA,NA,NA,NA,NA,NA,NA,NA,NA,NA,NA,NA,NA,NA,NA,NA,NA,NA,NA,NA,NA,NA,NA,NA,NA,NA,NA,NA,NA,NA,NA,NA,NA,NA,NA,NA,NA,NA,NA,NA,NA,NA,NA,NA,NA,NA,NA,1,7.7369,0,2,2,4,1,NA,NA,NA,NA,NA,NA,NA,NA,NA,NA,NA,NA,NA,NA,"IwAR0o3eiIlnvz5EHBbfqJQmODO2Dw_NiUT4VAvKbD3V8DH5-ZWROQ0FoOZfU",NA,"self",2.78364741168099,1,0.833991989271811,NA,0.787417978517245,0.793258017084657,NA,2.78364741168099,NA,0.787417978517245
"151","ate",NA,NA,NA,NA,NA,NA,NA,NA,NA,NA,"1","HZp1cq0","woman",21,"7-9h","2021-12-03_17h28.33.208","bachelor","2021.2.3","MacIntel",60.0024001,NA,NA,NA,NA,NA,NA,NA,NA,NA,NA,NA,NA,NA,NA,NA,NA,NA,NA,NA,NA,NA,NA,NA,NA,NA,NA,NA,NA,NA,NA,NA,NA,NA,NA,NA,NA,NA,NA,NA,NA,NA,NA,NA,NA,NA,NA,NA,NA,NA,-1,1.6841,0,22,22,4,1,NA,NA,NA,NA,NA,NA,NA,NA,NA,NA,NA,NA,NA,NA,"IwAR34o4hFglqOf5qXH5XZv9Oee1Atpp5NPMmnwmP9_R6x9avrLQti2Cuqt_Y",NA,"self",2.78364741168099,1,0.833991989271811,NA,-0.787417978517245,0.793258017084657,NA,2.78364741168099,NA,0.787417978517245
"152","ate",NA,NA,NA,NA,NA,NA,NA,NA,NA,NA,"1","zSVhIjL","man",22,"10-12h","2021-12-18_20h07.54.328","bachelor","2021.2.3","Win32",60.14675809,NA,NA,NA,NA,NA,NA,NA,NA,NA,NA,NA,NA,NA,NA,NA,NA,NA,NA,NA,NA,NA,NA,NA,NA,NA,NA,NA,NA,NA,NA,NA,NA,NA,NA,NA,NA,NA,NA,NA,NA,NA,NA,NA,NA,NA,NA,NA,NA,NA,-1,0.1019,0,9,9,4,1,NA,NA,NA,NA,NA,NA,NA,NA,NA,NA,NA,NA,NA,NA,"IwAR3xImbazzl19dIvkz5h8QYXIvcc3lC4Z_PsV1SdYQMWH5693pco-_SvD7M",NA,"self",2.78364741168099,1,0.833991989271811,NA,-0.787417978517245,0.793258017084657,NA,2.78364741168099,NA,0.787417978517245
"153","ate",NA,NA,NA,NA,NA,NA,NA,NA,NA,NA,"1","MCbeohB","man",22,"4-6h","2021-12-01_14h15.27.541","bachelor","2021.2.3","Win32",60.91246878,NA,NA,NA,NA,NA,NA,NA,NA,NA,NA,NA,NA,NA,NA,NA,NA,NA,NA,NA,NA,NA,NA,NA,NA,NA,NA,NA,NA,NA,NA,NA,NA,NA,NA,NA,NA,NA,NA,NA,NA,NA,NA,NA,NA,NA,NA,NA,NA,NA,1,1.6201,0,16,16,4,1,NA,NA,NA,NA,NA,NA,NA,NA,NA,NA,NA,NA,NA,NA,"IwAR3DabSM8ZhQHYjBm2vYXYKA36WBN4UsyQ7BdumCsNE5xC1DF9JtIZNo0w4",NA,"self",2.78364741168099,1,0.833991989271811,NA,0.787417978517245,0.793258017084657,NA,2.78364741168099,NA,0.787417978517245
"154","ate",NA,NA,NA,NA,NA,NA,NA,NA,NA,NA,"1","oqaT2rf","man",24,"10-12h","2021-12-02_20h49.38.753","bachelor","2021.2.3","Win32",60.0132029,NA,NA,NA,NA,NA,NA,NA,NA,NA,NA,NA,NA,NA,NA,NA,NA,NA,NA,NA,NA,NA,NA,NA,NA,NA,NA,NA,NA,NA,NA,NA,NA,NA,NA,NA,NA,NA,NA,NA,NA,NA,NA,NA,NA,NA,NA,NA,NA,NA,-1,1.6584,0,22,22,4,1,NA,NA,NA,NA,NA,NA,NA,NA,NA,NA,NA,NA,NA,NA,"IwAR2QXWwh8gZK1koYfP-KWOSWoIu4Ii1ih1T5WzlYDBDafJno2SPmhK0a36w",NA,"self",2.78364741168099,1,0.833991989271811,NA,-0.787417978517245,0.793258017084657,NA,2.78364741168099,NA,0.787417978517245
"155","ate",NA,NA,NA,NA,NA,NA,NA,NA,NA,NA,"0","vJxGHLu","man",23,"4-6h","2021-12-11_13h54.49.366","bachelor","2021.2.3","Win32",59.89458553,NA,NA,NA,NA,NA,NA,NA,NA,NA,NA,NA,NA,NA,NA,NA,NA,NA,NA,NA,NA,NA,NA,NA,NA,NA,NA,NA,NA,NA,NA,NA,NA,NA,NA,NA,NA,NA,NA,NA,NA,NA,NA,NA,NA,NA,NA,NA,NA,NA,-1,2.5984,0,21,21,4,1,NA,NA,NA,NA,NA,NA,NA,NA,NA,NA,NA,NA,NA,NA,NA,NA,"self",2.78364741168099,1,0.833991989271811,NA,-0.787417978517245,0.793258017084657,NA,2.78364741168099,NA,0.787417978517245
"156","ate",NA,NA,NA,NA,NA,NA,NA,NA,NA,NA,"1","0DYUKyQ","woman",33,"7-9h","2021-12-20_14h14.37.099","bachelor","2021.2.3","Win32",59.92329818,NA,NA,NA,NA,NA,NA,NA,NA,NA,NA,NA,NA,NA,NA,NA,NA,NA,NA,NA,NA,NA,NA,NA,NA,NA,NA,NA,NA,NA,NA,NA,NA,NA,NA,NA,NA,NA,NA,NA,NA,NA,NA,NA,NA,NA,NA,NA,NA,NA,1,1.6129,0,5,5,4,1,NA,NA,NA,NA,NA,NA,NA,NA,NA,NA,NA,NA,NA,NA,NA,NA,"self",2.78364741168099,1,0.833991989271811,NA,0.787417978517245,0.793258017084657,NA,2.78364741168099,NA,0.787417978517245
"157","ate",NA,NA,NA,NA,NA,NA,NA,NA,NA,NA,"1","i5cHQii","man",29,"10-12h","2021-12-12_19h50.13.908","bachelor","2021.2.3","MacIntel",59.99520038,NA,NA,NA,NA,NA,NA,NA,NA,NA,NA,NA,NA,NA,NA,NA,NA,NA,NA,NA,NA,NA,NA,NA,NA,NA,NA,NA,NA,NA,NA,NA,NA,NA,NA,NA,NA,NA,NA,NA,NA,NA,NA,NA,NA,NA,NA,NA,NA,NA,1,0.9377,0,12,12,4,1,NA,NA,NA,NA,NA,NA,NA,NA,NA,NA,NA,NA,NA,NA,"IwAR3vCExL7aXYkCwXCqqHvy-ugvf5lrmEJP15zVtYiR2S6nevJHXbXgMcXro",NA,"self",2.78364741168099,1,0.833991989271811,NA,0.787417978517245,0.793258017084657,NA,2.78364741168099,NA,0.787417978517245
"158","ate",NA,NA,NA,NA,NA,NA,NA,NA,NA,NA,"0","QGVynMl","woman",28,"10-12h","2021-12-12_22h34.04.519","bachelor","2021.2.3","MacIntel",59.99880002,NA,NA,NA,NA,NA,NA,NA,NA,NA,NA,NA,NA,NA,NA,NA,NA,NA,NA,NA,NA,NA,NA,NA,NA,NA,NA,NA,NA,NA,NA,NA,NA,NA,NA,NA,NA,NA,NA,NA,NA,NA,NA,NA,NA,NA,NA,NA,NA,NA,-1,1.8143,0,5,5,4,1,NA,NA,NA,NA,NA,NA,NA,NA,NA,NA,NA,NA,NA,NA,"IwAR1GM1Hb5NvVLdUtLLXx6_cp4lZKlg5jemhIrj8nJ5r0UGBGy7rKYQAj_Us",NA,"self",2.78364741168099,1,0.833991989271811,NA,-0.787417978517245,0.793258017084657,NA,2.78364741168099,NA,0.787417978517245
"159","ate",NA,NA,NA,NA,NA,NA,NA,NA,NA,NA,"0","jYhj9yS","man",20,"10-12h","2021-12-07_19h19.21.114","bachelor","2021.2.3","Win32",59.93407252,NA,NA,NA,NA,NA,NA,NA,NA,NA,NA,NA,NA,NA,NA,NA,NA,NA,NA,NA,NA,NA,NA,NA,NA,NA,NA,NA,NA,NA,NA,NA,NA,NA,NA,NA,NA,NA,NA,NA,NA,NA,NA,NA,NA,NA,NA,NA,NA,NA,-1,2.8224,0,13,13,4,1,NA,NA,NA,NA,NA,NA,NA,NA,NA,NA,NA,NA,NA,NA,"IwAR3hMbX0hdVyF1MsQbbo-rjMO46g-dm1Sys-XXHoE16wUwHHlUIfFau-ICk",NA,"self",2.78364741168099,1,0.833991989271811,NA,-0.787417978517245,0.793258017084657,NA,2.78364741168099,NA,0.787417978517245
"160","ate",NA,NA,NA,NA,NA,NA,NA,NA,NA,NA,"1","fzz8ygr","man",26,"16-18h","2021-12-03_21h15.37.122","bachelor","2021.2.3","Win32",59.97001499,NA,NA,NA,NA,NA,NA,NA,NA,NA,NA,NA,NA,NA,NA,NA,NA,NA,NA,NA,NA,NA,NA,NA,NA,NA,NA,NA,NA,NA,NA,NA,NA,NA,NA,NA,NA,NA,NA,NA,NA,NA,NA,NA,NA,NA,NA,NA,"space",7.9115,-1,2.5798,0,0,0,4,1,NA,NA,NA,NA,NA,NA,NA,NA,NA,NA,NA,NA,NA,NA,"IwAR17Lusyd9utx4WzBryBumfKoHJdoNPWIBJiLZ5sTws4ihTeQKsMUorjwHs",NA,"self",2.78364741168099,1,0.833991989271811,NA,-0.787417978517245,0.793258017084657,NA,2.78364741168099,NA,0.787417978517245
"161","ate",NA,NA,NA,NA,NA,NA,NA,NA,NA,NA,"0","DXfT4CF","woman",33,"4-6h","2021-12-08_09h36.04.523","bachelor","2021.2.3","Win32",60.73858115,NA,NA,NA,NA,NA,NA,NA,NA,NA,NA,NA,NA,NA,NA,NA,NA,NA,NA,NA,NA,NA,NA,NA,NA,NA,NA,NA,NA,NA,NA,NA,NA,NA,NA,NA,NA,NA,NA,NA,NA,NA,NA,NA,NA,NA,NA,NA,"space",6.1756,1,2.3598,0,0,0,4,1,NA,NA,NA,NA,NA,NA,NA,NA,NA,NA,NA,NA,NA,NA,NA,NA,"self",2.78364741168099,1,0.833991989271811,NA,0.787417978517245,0.793258017084657,NA,2.78364741168099,NA,0.787417978517245
"162","ate",NA,NA,NA,NA,NA,NA,NA,NA,NA,NA,"1","8nSGw4u","man",26,"1-3h","2021-12-06_09h54.23.116","bachelor","2021.2.3","MacIntel",76.92307692,NA,NA,NA,NA,NA,NA,NA,NA,NA,NA,NA,NA,NA,NA,NA,NA,NA,NA,NA,NA,NA,NA,NA,NA,NA,NA,NA,NA,NA,NA,NA,NA,NA,NA,NA,NA,NA,NA,NA,NA,NA,NA,NA,NA,NA,NA,NA,NA,NA,-1,1.297,0,9,9,4,1,NA,NA,NA,NA,NA,NA,NA,NA,NA,NA,NA,NA,NA,NA,"IwAR150sIen65aU5-p66bogaTJxcS7EVsnNekNCpDp4woRLPco0W738Mop-Dw",NA,"self",2.78364741168099,1,0.833991989271811,NA,-0.787417978517245,0.793258017084657,NA,2.78364741168099,NA,0.787417978517245
"163","ate",NA,NA,NA,NA,NA,NA,NA,NA,NA,NA,"0","ezKRId9","woman",35,"7-9h","2021-12-18_08h42.56.536","bachelor","2021.2.3","Win32",60.70908208,NA,NA,NA,NA,NA,NA,NA,NA,NA,NA,NA,NA,NA,NA,NA,NA,NA,NA,NA,NA,NA,NA,NA,NA,NA,NA,NA,NA,NA,NA,NA,NA,NA,NA,NA,NA,NA,NA,NA,NA,NA,NA,NA,NA,NA,NA,NA,NA,NA,1,1.0344,0,19,19,4,1,NA,NA,NA,NA,NA,NA,NA,NA,NA,NA,NA,NA,NA,NA,"IwAR2y5zX-biLucKujY29B_pMPr-qJWH8yualuXXoON_tRCg637kR1zjPuUhw",NA,"self",2.78364741168099,1,0.833991989271811,NA,0.787417978517245,0.793258017084657,NA,2.78364741168099,NA,0.787417978517245
"164","ate",NA,NA,NA,NA,NA,NA,NA,NA,NA,NA,"0","5LsI3OC","woman",18,"10-12h","2021-12-01_17h10.38.417","bachelor","2021.2.3","Win32",59.96641881,NA,NA,NA,NA,NA,NA,NA,NA,NA,NA,NA,NA,NA,NA,NA,NA,NA,NA,NA,NA,NA,NA,NA,NA,NA,NA,NA,NA,NA,NA,NA,NA,NA,NA,NA,NA,NA,NA,NA,NA,NA,NA,NA,NA,NA,NA,NA,NA,NA,-1,2.0675,0,21,21,4,1,NA,NA,NA,NA,NA,NA,NA,NA,NA,NA,NA,NA,NA,NA,"IwAR30-zn7PZY6bv_IRc0y2CLUXBFjvoh0_DFK33PzhVQ74YXmRt2v1VZloQE",NA,"self",2.78364741168099,1,0.833991989271811,NA,-0.787417978517245,0.793258017084657,NA,2.78364741168099,NA,0.787417978517245
"165","ate",NA,NA,NA,NA,NA,NA,NA,NA,NA,NA,"1","vIpIxWv","man",32,"13-15h","2021-12-12_20h42.26.149","bachelor","2021.2.3","Win32",60.20107158,NA,NA,NA,NA,NA,NA,NA,NA,NA,NA,NA,NA,NA,NA,NA,NA,NA,NA,NA,NA,NA,NA,NA,NA,NA,NA,NA,NA,NA,NA,NA,NA,NA,NA,NA,NA,NA,NA,NA,NA,NA,NA,NA,NA,NA,NA,NA,NA,NA,1,0.9734,0,25,25,4,1,NA,NA,NA,NA,NA,NA,NA,NA,NA,NA,NA,NA,NA,NA,NA,NA,"self",2.78364741168099,1,0.833991989271811,NA,0.787417978517245,0.793258017084657,NA,2.78364741168099,NA,0.787417978517245
"166","ate",NA,NA,NA,NA,NA,NA,NA,NA,NA,NA,"1","f8Dzr4d","man",25,"13-15h","2021-12-06_20h12.48.615","bachelor","2021.2.3","Win32",121.0360687,NA,NA,NA,NA,NA,NA,NA,NA,NA,NA,NA,NA,NA,NA,NA,NA,NA,NA,NA,NA,NA,NA,NA,NA,NA,NA,NA,NA,NA,NA,NA,NA,NA,NA,NA,NA,NA,NA,NA,NA,NA,NA,NA,NA,NA,NA,NA,NA,NA,-1,3.3575,0,23,23,4,1,NA,NA,NA,NA,NA,NA,NA,NA,NA,NA,NA,NA,NA,NA,"IwAR3S7lrNNfoTUTMyWpqksg8nYfqloK-NxG4GDfI-wZWXqf2-0zXkfG9A7s8",NA,"self",2.78364741168099,1,0.833991989271811,NA,-0.787417978517245,0.793258017084657,NA,2.78364741168099,NA,0.787417978517245
"167","ate",NA,NA,NA,NA,NA,NA,NA,NA,NA,NA,"1","qs7FYRk","man",27,"13-15h","2021-12-02_21h08.39.749","bachelor","2021.2.3","Win32",59.99880002,NA,NA,NA,NA,NA,NA,NA,NA,NA,NA,NA,NA,NA,NA,NA,NA,NA,NA,NA,NA,NA,NA,NA,NA,NA,NA,NA,NA,NA,NA,NA,NA,NA,NA,NA,NA,NA,NA,NA,NA,NA,NA,NA,NA,NA,NA,NA,NA,NA,1,1.2048,0,25,25,4,1,NA,NA,NA,NA,NA,NA,NA,NA,NA,NA,NA,NA,NA,NA,"IwAR2wFWkhAttIX2us655vg4wXxSR46FU7qlyNXrNrDCe1QtEw46K5sxflouw",NA,"self",2.78364741168099,1,0.833991989271811,NA,0.787417978517245,0.793258017084657,NA,2.78364741168099,NA,0.787417978517245
"168","ate",NA,NA,NA,NA,NA,NA,NA,NA,NA,NA,"0","AZ3Gg7G","man",24,"4-6h","2021-12-11_18h10.46.274","bachelor","2021.2.3","Win32",60.29181237,NA,NA,NA,NA,NA,NA,NA,NA,NA,NA,NA,NA,NA,NA,NA,NA,NA,NA,NA,NA,NA,NA,NA,NA,NA,NA,NA,NA,NA,NA,NA,NA,NA,NA,NA,NA,NA,NA,NA,NA,NA,NA,NA,NA,NA,NA,NA,NA,NA,-1,2.0617,0,2,2,4,1,NA,NA,NA,NA,NA,NA,NA,NA,NA,NA,NA,NA,NA,NA,"IwAR2Q7jZKIq7PnqEC-VFvwAdnbxakit3fX_VvYV9IJgwedJLOMhHyzayGzxI",NA,"self",2.78364741168099,1,0.833991989271811,NA,-0.787417978517245,0.793258017084657,NA,2.78364741168099,NA,0.787417978517245
"169","ate",NA,NA,NA,NA,NA,NA,NA,NA,NA,NA,"0","Wv9bebz","woman",21,"13-15h","2021-12-01_20h47.58.802","bachelor","2021.2.3","MacIntel",71.42857143,NA,NA,NA,NA,NA,NA,NA,NA,NA,NA,NA,NA,NA,NA,NA,NA,NA,NA,NA,NA,NA,NA,NA,NA,NA,NA,NA,NA,NA,NA,NA,NA,NA,NA,NA,NA,NA,NA,NA,NA,NA,NA,NA,NA,NA,NA,NA,NA,NA,-1,1.179,0,16,16,4,1,NA,NA,NA,NA,NA,NA,NA,NA,NA,NA,NA,NA,NA,NA,"IwAR0fIy4rXJbTyGk1qvhlqIHko2JwZHUIjMwkfZhFNfNAb7iLftWId5prvy8",NA,"self",2.78364741168099,1,0.833991989271811,NA,-0.787417978517245,0.793258017084657,NA,2.78364741168099,NA,0.787417978517245
"170","ate",NA,NA,NA,NA,NA,NA,NA,NA,NA,NA,"0","tITnv3Z","woman",21,"1-3h","2021-12-06_10h51.55.444","bachelor","2021.2.3","MacIntel",60.0024001,NA,NA,NA,NA,NA,NA,NA,NA,NA,NA,NA,NA,NA,NA,NA,NA,NA,NA,NA,NA,NA,NA,NA,NA,NA,NA,NA,NA,NA,NA,NA,NA,NA,NA,NA,NA,NA,NA,NA,NA,NA,NA,NA,NA,NA,NA,NA,NA,NA,-1,0.8345,0,25,25,4,1,NA,NA,NA,NA,NA,NA,NA,NA,NA,NA,NA,NA,NA,NA,"IwAR2b37PvDE92fbWKCZSags7V8ETFVid47-yhywKOffvfuWcT_9Kwk0wFAuI",NA,"self",2.78364741168099,1,0.833991989271811,NA,-0.787417978517245,0.793258017084657,NA,2.78364741168099,NA,0.787417978517245
"171","belch",NA,NA,NA,NA,NA,NA,NA,NA,NA,NA,"1","s0995fA","man",34,"1-3h","2021-12-02_06h42.00.524","bachelor","2021.2.3","Win32",60.07810153,NA,NA,-1,2.4363,0,8,8,13,1,NA,NA,NA,NA,NA,NA,NA,NA,NA,NA,NA,NA,NA,NA,NA,NA,NA,NA,NA,NA,NA,NA,NA,NA,NA,NA,NA,NA,NA,NA,NA,NA,NA,NA,NA,NA,NA,NA,NA,NA,NA,NA,NA,NA,NA,NA,NA,NA,NA,NA,NA,NA,NA,NA,NA,NA,NA,NA,NA,NA,NA,"IwAR3pSigNbLrHoKkV4D12BnHrO_Vuq-0xay_Bg_EjS5V5AVDe9mklrR_J1Vo",NA,"scene",-1.475372754251,-1,-1.10537081642109,-0.0936847172341607,NA,0.085734035433953,-1.475372754251,NA,0.0936847172341607,NA
"172","belch",NA,NA,NA,NA,NA,NA,NA,NA,NA,NA,"1","MCbeohB","man",22,"4-6h","2021-12-01_14h15.27.541","bachelor","2021.2.3","Win32",60.91246878,NA,NA,-1,2.8848,0,6,6,13,1,NA,NA,NA,NA,NA,NA,NA,NA,NA,NA,NA,NA,NA,NA,NA,NA,NA,NA,NA,NA,NA,NA,NA,NA,NA,NA,NA,NA,NA,NA,NA,NA,NA,NA,NA,NA,NA,NA,NA,NA,NA,NA,NA,NA,NA,NA,NA,NA,NA,NA,NA,NA,NA,NA,NA,NA,NA,NA,NA,NA,NA,"IwAR3DabSM8ZhQHYjBm2vYXYKA36WBN4UsyQ7BdumCsNE5xC1DF9JtIZNo0w4",NA,"scene",-1.475372754251,-1,-1.10537081642109,-0.0936847172341607,NA,0.085734035433953,-1.475372754251,NA,0.0936847172341607,NA
"173","belch",NA,NA,NA,NA,NA,NA,NA,NA,NA,NA,"0","ezKRId9","woman",35,"7-9h","2021-12-18_08h42.56.536","bachelor","2021.2.3","Win32",60.70908208,NA,NA,-1,4.8321,0,21,21,13,1,NA,NA,NA,NA,NA,NA,NA,NA,NA,NA,NA,NA,NA,NA,NA,NA,NA,NA,NA,NA,NA,NA,NA,NA,NA,NA,NA,NA,NA,NA,NA,NA,NA,NA,NA,NA,NA,NA,NA,NA,NA,NA,NA,NA,NA,NA,NA,NA,NA,NA,NA,NA,NA,NA,NA,NA,NA,NA,NA,NA,NA,"IwAR2y5zX-biLucKujY29B_pMPr-qJWH8yualuXXoON_tRCg637kR1zjPuUhw",NA,"scene",-1.475372754251,-1,-1.10537081642109,-0.0936847172341607,NA,0.085734035433953,-1.475372754251,NA,0.0936847172341607,NA
"174","belch",NA,NA,NA,NA,NA,NA,NA,NA,NA,NA,"0","DwugyIr","woman",18,"10-12h","2021-12-01_17h10.38.417","bachelor","2021.2.3","Win32",59.96641881,NA,NA,1,1.3439,0,16,16,13,1,NA,NA,NA,NA,NA,NA,NA,NA,NA,NA,NA,NA,NA,NA,NA,NA,NA,NA,NA,NA,NA,NA,NA,NA,NA,NA,NA,NA,NA,NA,NA,NA,NA,NA,NA,NA,NA,NA,NA,NA,NA,NA,NA,NA,NA,NA,NA,NA,NA,NA,NA,NA,NA,NA,NA,NA,NA,NA,NA,NA,NA,"IwAR30-zn7PZY6bv_IRc0y2CLUXBFjvoh0_DFK33PzhVQ74YXmRt2v1VZloQE",NA,"scene",-1.475372754251,-1,-1.10537081642109,0.0936847172341607,NA,0.085734035433953,-1.475372754251,NA,0.0936847172341607,NA
"175","belch",NA,NA,NA,NA,NA,NA,NA,NA,NA,NA,"1","wbVg3iX","woman",24,"4-6h","2021-12-04_12h48.41.699","bachelor","2021.2.3","Win32",59.69080165,NA,NA,-1,2.6153,0,20,20,13,1,NA,NA,NA,NA,NA,NA,NA,NA,NA,NA,NA,NA,NA,NA,NA,NA,NA,NA,NA,NA,NA,NA,NA,NA,NA,NA,NA,NA,NA,NA,NA,NA,NA,NA,NA,NA,NA,NA,NA,NA,NA,NA,NA,NA,NA,NA,NA,NA,NA,NA,NA,NA,NA,NA,NA,NA,NA,NA,NA,NA,NA,"IwAR1U9sv7jt6-VzaoK-jLrG5svuDWOPsE4OrmrlNSodsVR0DslIWgxoNfjnw",NA,"scene",-1.475372754251,-1,-1.10537081642109,-0.0936847172341607,NA,0.085734035433953,-1.475372754251,NA,0.0936847172341607,NA
"176","belch",NA,NA,NA,NA,NA,NA,NA,NA,NA,NA,"1","fzz8ygr","man",26,"16-18h","2021-12-03_21h15.37.122","bachelor","2021.2.3","Win32",59.97001499,NA,NA,-1,2.8702,0,23,23,13,1,NA,NA,NA,NA,NA,NA,NA,NA,NA,NA,NA,NA,NA,NA,NA,NA,NA,NA,NA,NA,NA,NA,NA,NA,NA,NA,NA,NA,NA,NA,NA,NA,NA,NA,NA,NA,NA,NA,NA,NA,NA,NA,NA,NA,NA,NA,NA,NA,NA,NA,NA,NA,NA,NA,NA,NA,NA,NA,NA,NA,NA,"IwAR17Lusyd9utx4WzBryBumfKoHJdoNPWIBJiLZ5sTws4ihTeQKsMUorjwHs",NA,"scene",-1.475372754251,-1,-1.10537081642109,-0.0936847172341607,NA,0.085734035433953,-1.475372754251,NA,0.0936847172341607,NA
"177","belch",NA,NA,NA,NA,NA,NA,NA,NA,NA,NA,"0","p9QcJ5B","woman",23,"4-6h","2021-12-06_13h25.11.791","bachelor","2021.2.3","MacIntel",60.0024001,NA,NA,-1,1.7878,0,7,7,13,1,NA,NA,NA,NA,NA,NA,NA,NA,NA,NA,NA,NA,NA,NA,NA,NA,NA,NA,NA,NA,NA,NA,NA,NA,NA,NA,NA,NA,NA,NA,NA,NA,NA,NA,NA,NA,NA,NA,NA,NA,NA,NA,NA,NA,NA,NA,NA,NA,NA,NA,NA,NA,NA,NA,NA,NA,NA,NA,NA,NA,NA,NA,NA,"scene",-1.475372754251,-1,-1.10537081642109,-0.0936847172341607,NA,0.085734035433953,-1.475372754251,NA,0.0936847172341607,NA
"178","belch",NA,NA,NA,NA,NA,NA,NA,NA,NA,NA,"1","i5cHQii","man",29,"10-12h","2021-12-12_19h50.13.908","bachelor","2021.2.3","MacIntel",59.99520038,NA,NA,1,1.5998,0,16,16,13,1,NA,NA,NA,NA,NA,NA,NA,NA,NA,NA,NA,NA,NA,NA,NA,NA,NA,NA,NA,NA,NA,NA,NA,NA,NA,NA,NA,NA,NA,NA,NA,NA,NA,NA,NA,NA,NA,NA,NA,NA,NA,NA,NA,NA,NA,NA,NA,NA,NA,NA,NA,NA,NA,NA,NA,NA,NA,NA,NA,NA,NA,"IwAR3vCExL7aXYkCwXCqqHvy-ugvf5lrmEJP15zVtYiR2S6nevJHXbXgMcXro",NA,"scene",-1.475372754251,-1,-1.10537081642109,0.0936847172341607,NA,0.085734035433953,-1.475372754251,NA,0.0936847172341607,NA
"179","belch",NA,NA,NA,NA,NA,NA,NA,NA,NA,NA,"1","0gnVEeX","man",32,"10-12h","2021-12-04_20h31.09.158","bachelor","2021.2.3","MacIntel",58.82352941,NA,NA,-1,1.877,0,24,24,13,1,NA,NA,NA,NA,NA,NA,NA,NA,NA,NA,NA,NA,NA,NA,NA,NA,NA,NA,NA,NA,NA,NA,NA,NA,NA,NA,NA,NA,NA,NA,NA,NA,NA,NA,NA,NA,NA,NA,NA,NA,NA,NA,NA,NA,NA,NA,NA,NA,NA,NA,NA,NA,NA,NA,NA,NA,NA,NA,NA,NA,NA,"IwAR3y99_qi9ZkahrWl2gxbFf1IxdizgmXWHn01GjRv4YStcN-ylfQ7-olS5w",NA,"scene",-1.475372754251,-1,-1.10537081642109,-0.0936847172341607,NA,0.085734035433953,-1.475372754251,NA,0.0936847172341607,NA
