key_resp_17.keys,key_resp_17.rt,key_resp_13.keys,key_resp_13.rt,trials_5.thisRepN,trials_5.thisTrialN,trials_5.thisN,trials_5.thisIndex,trials_5.ran,Text,Condition,participant,Gender*,Age*,Estimated hours since last sleep*,date,expName,psychopyVersion,OS,frameRate,key_resp_2.keys,key_resp_2.rt,key_resp_11.keys,key_resp_11.rt,trials_6.thisRepN,trials_6.thisTrialN,trials_6.thisN,trials_6.thisIndex,trials_6.ran,Word,key_resp_3.keys,key_resp_3.rt,key_resp_9.keys,key_resp_9.rt,trials_2.thisRepN,trials_2.thisTrialN,trials_2.thisN,trials_2.thisIndex,trials_2.ran,Stimuli,keyrespp.keys,keyrespp.rt,key_resp_4.keys,key_resp_4.rt,trials.thisRepN,trials.thisTrialN,trials.thisN,trials.thisIndex,trials.ran,Response,Congr,RightAns,key_resp_8.keys,key_resp_8.rt,key_resp_10.keys,key_resp_10.rt,trials_4.thisRepN,trials_4.thisTrialN,trials_4.thisN,trials_4.thisIndex,trials_4.ran,key_resp_14.keys,key_resp_14.rt,trials_7.thisRepN,trials_7.thisTrialN,trials_7.thisN,trials_7.thisIndex,trials_7.ran,key_resp_5.keys,key_resp_5.rt,key_resp_12.keys,key_resp_12.rt,trials_3.thisRepN,trials_3.thisTrialN,trials_3.thisN,trials_3.thisIndex,trials_3.ran,key_resp_6.keys,key_resp_6.rt,key_resp_15.keys,key_resp_15.rt,socialexc.thisRepN,socialexc.thisTrialN,socialexc.thisN,socialexc.thisIndex,socialexc.ran,Question,key_resp_7.keys,key_resp_7.rt,key_resp_16.keys,key_resp_16.rt
y,13.9427,space,3.4155,0,0,0,0,1,"
Please complete all tasks. It will take no more than 5-10 minutes.

Press any key to start the experiment",0,kolobabs,woman,23,4-6h,2021-12-06_13h25.11.791,bachelor,2021.2.3,MacIntel,60.0024001,,,,,,,,,,,,,,,,,,,,,,,,,,,,,,,,,,,,,,,,,,,,,,,,,,,,,,,,,,,,,,,,,,,,,,,
,,,,,,,,,,,kolobabs,woman,23,4-6h,2021-12-06_13h25.11.791,bachelor,2021.2.3,MacIntel,60.0024001,space,17.8811,right,2.5697,0,0,0,9,1,hot,,,,,,,,,,,,,,,,,,,,,,,,,,,,,,,,,,,,,,,,,,,,,,,,,,,,,,,,,,,,,
,,,,,,,,,,,kolobabs,woman,23,4-6h,2021-12-06_13h25.11.791,bachelor,2021.2.3,MacIntel,60.0024001,,,left,6.3972,0,1,1,27,1,applause,,,,,,,,,,,,,,,,,,,,,,,,,,,,,,,,,,,,,,,,,,,,,,,,,,,,,,,,,,,,,
,,,,,,,,,,,kolobabs,woman,23,4-6h,2021-12-06_13h25.11.791,bachelor,2021.2.3,MacIntel,60.0024001,,,right,1.4006,0,2,2,3,1,foot,,,,,,,,,,,,,,,,,,,,,,,,,,,,,,,,,,,,,,,,,,,,,,,,,,,,,,,,,,,,,
,,,,,,,,,,,kolobabs,woman,23,4-6h,2021-12-06_13h25.11.791,bachelor,2021.2.3,MacIntel,60.0024001,,,left,2.1902,0,3,3,24,1,lip,,,,,,,,,,,,,,,,,,,,,,,,,,,,,,,,,,,,,,,,,,,,,,,,,,,,,,,,,,,,,
,,,,,,,,,,,kolobabs,woman,23,4-6h,2021-12-06_13h25.11.791,bachelor,2021.2.3,MacIntel,60.0024001,,,right,1.9499,0,4,4,18,1,screech,,,,,,,,,,,,,,,,,,,,,,,,,,,,,,,,,,,,,,,,,,,,,,,,,,,,,,,,,,,,,
,,,,,,,,,,,kolobabs,woman,23,4-6h,2021-12-06_13h25.11.791,bachelor,2021.2.3,MacIntel,60.0024001,,,right,2.1046,0,5,5,1,1,ricochet,,,,,,,,,,,,,,,,,,,,,,,,,,,,,,,,,,,,,,,,,,,,,,,,,,,,,,,,,,,,,
,,,,,,,,,,,kolobabs,woman,23,4-6h,2021-12-06_13h25.11.791,bachelor,2021.2.3,MacIntel,60.0024001,,,left,3.839,0,6,6,25,1,soccer,,,,,,,,,,,,,,,,,,,,,,,,,,,,,,,,,,,,,,,,,,,,,,,,,,,,,,,,,,,,,
,,,,,,,,,,,kolobabs,woman,23,4-6h,2021-12-06_13h25.11.791,bachelor,2021.2.3,MacIntel,60.0024001,,,right,1.7878,0,7,7,13,1,belch,,,,,,,,,,,,,,,,,,,,,,,,,,,,,,,,,,,,,,,,,,,,,,,,,,,,,,,,,,,,,
,,,,,,,,,,,kolobabs,woman,23,4-6h,2021-12-06_13h25.11.791,bachelor,2021.2.3,MacIntel,60.0024001,,,left,1.2306,0,8,8,2,1,home,,,,,,,,,,,,,,,,,,,,,,,,,,,,,,,,,,,,,,,,,,,,,,,,,,,,,,,,,,,,,
,,,,,,,,,,,kolobabs,woman,23,4-6h,2021-12-06_13h25.11.791,bachelor,2021.2.3,MacIntel,60.0024001,,,left,5.076,0,9,9,19,1,wonder,,,,,,,,,,,,,,,,,,,,,,,,,,,,,,,,,,,,,,,,,,,,,,,,,,,,,,,,,,,,,
,,,,,,,,,,,kolobabs,woman,23,4-6h,2021-12-06_13h25.11.791,bachelor,2021.2.3,MacIntel,60.0024001,,,right,1.3662,0,10,10,7,1,cough,,,,,,,,,,,,,,,,,,,,,,,,,,,,,,,,,,,,,,,,,,,,,,,,,,,,,,,,,,,,,
,,,,,,,,,,,kolobabs,woman,23,4-6h,2021-12-06_13h25.11.791,bachelor,2021.2.3,MacIntel,60.0024001,,,left,2.2164,0,11,11,26,1,eye,,,,,,,,,,,,,,,,,,,,,,,,,,,,,,,,,,,,,,,,,,,,,,,,,,,,,,,,,,,,,
,,,,,,,,,,,kolobabs,woman,23,4-6h,2021-12-06_13h25.11.791,bachelor,2021.2.3,MacIntel,60.0024001,,,right,1.8055,0,12,12,23,1,fee,,,,,,,,,,,,,,,,,,,,,,,,,,,,,,,,,,,,,,,,,,,,,,,,,,,,,,,,,,,,,
,,,,,,,,,,,kolobabs,woman,23,4-6h,2021-12-06_13h25.11.791,bachelor,2021.2.3,MacIntel,60.0024001,,,right,1.455,0,13,13,15,1,minister,,,,,,,,,,,,,,,,,,,,,,,,,,,,,,,,,,,,,,,,,,,,,,,,,,,,,,,,,,,,,
,,,,,,,,,,,kolobabs,woman,23,4-6h,2021-12-06_13h25.11.791,bachelor,2021.2.3,MacIntel,60.0024001,,,right,1.7375,0,14,14,17,1,scientist,,,,,,,,,,,,,,,,,,,,,,,,,,,,,,,,,,,,,,,,,,,,,,,,,,,,,,,,,,,,,
,,,,,,,,,,,kolobabs,woman,23,4-6h,2021-12-06_13h25.11.791,bachelor,2021.2.3,MacIntel,60.0024001,,,left,1.3712,0,15,15,22,1,woman,,,,,,,,,,,,,,,,,,,,,,,,,,,,,,,,,,,,,,,,,,,,,,,,,,,,,,,,,,,,,
,,,,,,,,,,,kolobabs,woman,23,4-6h,2021-12-06_13h25.11.791,bachelor,2021.2.3,MacIntel,60.0024001,,,right,7.8871,0,16,16,6,1,airport,,,,,,,,,,,,,,,,,,,,,,,,,,,,,,,,,,,,,,,,,,,,,,,,,,,,,,,,,,,,,
,,,,,,,,,,,kolobabs,woman,23,4-6h,2021-12-06_13h25.11.791,bachelor,2021.2.3,MacIntel,60.0024001,,,right,2.3492,0,17,17,12,1,forest,,,,,,,,,,,,,,,,,,,,,,,,,,,,,,,,,,,,,,,,,,,,,,,,,,,,,,,,,,,,,
,,,,,,,,,,,kolobabs,woman,23,4-6h,2021-12-06_13h25.11.791,bachelor,2021.2.3,MacIntel,60.0024001,,,right,3.2654,0,18,18,0,1,drank,,,,,,,,,,,,,,,,,,,,,,,,,,,,,,,,,,,,,,,,,,,,,,,,,,,,,,,,,,,,,
,,,,,,,,,,,kolobabs,woman,23,4-6h,2021-12-06_13h25.11.791,bachelor,2021.2.3,MacIntel,60.0024001,,,right,1.995,0,19,19,20,1,journalist,,,,,,,,,,,,,,,,,,,,,,,,,,,,,,,,,,,,,,,,,,,,,,,,,,,,,,,,,,,,,
,,,,,,,,,,,kolobabs,woman,23,4-6h,2021-12-06_13h25.11.791,bachelor,2021.2.3,MacIntel,60.0024001,,,left,2.9712,0,20,20,8,1,college,,,,,,,,,,,,,,,,,,,,,,,,,,,,,,,,,,,,,,,,,,,,,,,,,,,,,,,,,,,,,
,,,,,,,,,,,kolobabs,woman,23,4-6h,2021-12-06_13h25.11.791,bachelor,2021.2.3,MacIntel,60.0024001,,,left,2.2166,0,21,21,4,1,hospital,,,,,,,,,,,,,,,,,,,,,,,,,,,,,,,,,,,,,,,,,,,,,,,,,,,,,,,,,,,,,
,,,,,,,,,,,kolobabs,woman,23,4-6h,2021-12-06_13h25.11.791,bachelor,2021.2.3,MacIntel,60.0024001,,,right,4.0512,0,22,22,16,1,gunshot,,,,,,,,,,,,,,,,,,,,,,,,,,,,,,,,,,,,,,,,,,,,,,,,,,,,,,,,,,,,,
,,,,,,,,,,,kolobabs,woman,23,4-6h,2021-12-06_13h25.11.791,bachelor,2021.2.3,MacIntel,60.0024001,,,right,3.926,0,23,23,21,1,ambulance,,,,,,,,,,,,,,,,,,,,,,,,,,,,,,,,,,,,,,,,,,,,,,,,,,,,,,,,,,,,,
,,,,,,,,,,,kolobabs,woman,23,4-6h,2021-12-06_13h25.11.791,bachelor,2021.2.3,MacIntel,60.0024001,,,left,1.8075,0,24,24,5,1,cold,,,,,,,,,,,,,,,,,,,,,,,,,,,,,,,,,,,,,,,,,,,,,,,,,,,,,,,,,,,,,
,,,,,,,,,,,kolobabs,woman,23,4-6h,2021-12-06_13h25.11.791,bachelor,2021.2.3,MacIntel,60.0024001,,,right,3.9854,0,25,25,14,1,tourist,,,,,,,,,,,,,,,,,,,,,,,,,,,,,,,,,,,,,,,,,,,,,,,,,,,,,,,,,,,,,
,,,,,,,,,,,kolobabs,woman,23,4-6h,2021-12-06_13h25.11.791,bachelor,2021.2.3,MacIntel,60.0024001,,,left,1.0625,0,26,26,10,1,church,,,,,,,,,,,,,,,,,,,,,,,,,,,,,,,,,,,,,,,,,,,,,,,,,,,,,,,,,,,,,
,,,,,,,,,,,kolobabs,woman,23,4-6h,2021-12-06_13h25.11.791,bachelor,2021.2.3,MacIntel,60.0024001,,,right,1.2036,0,27,27,11,1,gasp,,,,,,,,,,,,,,,,,,,,,,,,,,,,,,,,,,,,,,,,,,,,,,,,,,,,,,,,,,,,,
,,,,,,,,,,,kolobabs,woman,23,4-6h,2021-12-06_13h25.11.791,bachelor,2021.2.3,MacIntel,60.0024001,,,,,,,,,,,space,12.9496,right,2.4727,0,0,0,1,1,10 - 18 + 1 = -9?,,,,,,,,,,,,,,,,,,,,,,,,,,,,,,,,,,,,,,,,,,,,,,,,,,,
,,,,,,,,,,,kolobabs,woman,23,4-6h,2021-12-06_13h25.11.791,bachelor,2021.2.3,MacIntel,60.0024001,,,,,,,,,,,,,left,2.8309,0,1,1,3,1,2 + 20 x 4 = 82?,,,,,,,,,,,,,,,,,,,,,,,,,,,,,,,,,,,,,,,,,,,,,,,,,,,
,,,,,,,,,,,kolobabs,woman,23,4-6h,2021-12-06_13h25.11.791,bachelor,2021.2.3,MacIntel,60.0024001,,,,,,,,,,,,,right,3.6307,0,2,2,2,1,10 - 5 - 16 = 21?,,,,,,,,,,,,,,,,,,,,,,,,,,,,,,,,,,,,,,,,,,,,,,,,,,,
,,,,,,,,,,,kolobabs,woman,23,4-6h,2021-12-06_13h25.11.791,bachelor,2021.2.3,MacIntel,60.0024001,,,,,,,,,,,,,right,4.1195,0,3,3,4,1,11 + 3 - 7 = 8?,,,,,,,,,,,,,,,,,,,,,,,,,,,,,,,,,,,,,,,,,,,,,,,,,,,
,,,,,,,,,,,kolobabs,woman,23,4-6h,2021-12-06_13h25.11.791,bachelor,2021.2.3,MacIntel,60.0024001,,,,,,,,,,,,,right,1.8866,0,4,4,0,1,5 x 5 - 10 = 22?,,,,,,,,,,,,,,,,,,,,,,,,,,,,,,,,,,,,,,,,,,,,,,,,,,,
,,,,,,,,,,,kolobabs,woman,23,4-6h,2021-12-06_13h25.11.791,bachelor,2021.2.3,MacIntel,60.0024001,,,,,,,,,,,,,,,,,,,,54 + 60 - 1 = 113?,space,5.1163,left,3.8011,0,0,0,5,1,PAY ATTENTION,1,left,,,,,,,,,,,,,,,,,,,,,,,,,,,,,,,,,,,,,,,
,,,,,,,,,,,kolobabs,woman,23,4-6h,2021-12-06_13h25.11.791,bachelor,2021.2.3,MacIntel,60.0024001,,,,,,,,,,,,,,,,,,,,2 x 40 + 3 = 84?,,,right,2.0776,0,1,1,6,1,RESPONSE RECORDED,0,right,,,,,,,,,,,,,,,,,,,,,,,,,,,,,,,,,,,,,,,
,,,,,,,,,,,kolobabs,woman,23,4-6h,2021-12-06_13h25.11.791,bachelor,2021.2.3,MacIntel,60.0024001,,,,,,,,,,,,,,,,,,,,14 x 2 + 10 = 38?,,,right,2.1751,0,2,2,4,1,CONCENTRATE,1,left,,,,,,,,,,,,,,,,,,,,,,,,,,,,,,,,,,,,,,,
,,,,,,,,,,,kolobabs,woman,23,4-6h,2021-12-06_13h25.11.791,bachelor,2021.2.3,MacIntel,60.0024001,,,,,,,,,,,,,,,,,,,,50 x 3 + 12 = 147?,,,right,3.2118,0,3,3,1,1,SPEED UP,1,left,,,,,,,,,,,,,,,,,,,,,,,,,,,,,,,,,,,,,,,
,,,,,,,,,,,kolobabs,woman,23,4-6h,2021-12-06_13h25.11.791,bachelor,2021.2.3,MacIntel,60.0024001,,,,,,,,,,,,,,,,,,,,5 x 5 - 29 = -40?,,,right,2.5099,0,4,4,7,1,SPEED UP,0,right,,,,,,,,,,,,,,,,,,,,,,,,,,,,,,,,,,,,,,,
,,,,,,,,,,,kolobabs,woman,23,4-6h,2021-12-06_13h25.11.791,bachelor,2021.2.3,MacIntel,60.0024001,,,,,,,,,,,,,,,,,,,,53 + 13 x 7 = -150?,,,right,4.0615,0,5,5,12,1,YOU’RE NOT TRYING HARD ENOUGH,0,right,,,,,,,,,,,,,,,,,,,,,,,,,,,,,,,,,,,,,,,
,,,,,,,,,,,kolobabs,woman,23,4-6h,2021-12-06_13h25.11.791,bachelor,2021.2.3,MacIntel,60.0024001,,,,,,,,,,,,,,,,,,,,54 - 40 x -2 = - 27?,,,,,0,6,6,8,1,RESPONSE RECORDED,0,right,,,,,,,,,,,,,,,,,,,,,,,,,,,,,,,,,,,,,,,
,,,,,,,,,,,kolobabs,woman,23,4-6h,2021-12-06_13h25.11.791,bachelor,2021.2.3,MacIntel,60.0024001,,,,,,,,,,,,,,,,,,,,14 x 2 - 3 = 25?,,,left,3.9237,0,7,7,13,1,TRY HARDER,1,left,,,,,,,,,,,,,,,,,,,,,,,,,,,,,,,,,,,,,,,
,,,,,,,,,,,kolobabs,woman,23,4-6h,2021-12-06_13h25.11.791,bachelor,2021.2.3,MacIntel,60.0024001,,,,,,,,,,,,,,,,,,,,72 + 17 x 3 = 121?,,,right,4.0735,0,8,8,2,1,RESPONSE RECORDED,0,right,,,,,,,,,,,,,,,,,,,,,,,,,,,,,,,,,,,,,,,
,,,,,,,,,,,kolobabs,woman,23,4-6h,2021-12-06_13h25.11.791,bachelor,2021.2.3,MacIntel,60.0024001,,,,,,,,,,,,,,,,,,,,35 - 65 - 20 = - 55?,,,right,4.4726,0,9,9,10,1,RESPONSE RECORDED,0,right,,,,,,,,,,,,,,,,,,,,,,,,,,,,,,,,,,,,,,,
,,,,,,,,,,,kolobabs,woman,23,4-6h,2021-12-06_13h25.11.791,bachelor,2021.2.3,MacIntel,60.0024001,,,,,,,,,,,,,,,,,,,,6 - 58 + 11 = -41?,,,right,4.6585,0,10,10,3,1,RESPONSE RECORDED,1,left,,,,,,,,,,,,,,,,,,,,,,,,,,,,,,,,,,,,,,,
,,,,,,,,,,,kolobabs,woman,23,4-6h,2021-12-06_13h25.11.791,bachelor,2021.2.3,MacIntel,60.0024001,,,,,,,,,,,,,,,,,,,,7 x 11 - 21 = 56?,,,left,4.0133,0,11,11,9,1,SPEED UP,1,left,,,,,,,,,,,,,,,,,,,,,,,,,,,,,,,,,,,,,,,
,,,,,,,,,,,kolobabs,woman,23,4-6h,2021-12-06_13h25.11.791,bachelor,2021.2.3,MacIntel,60.0024001,,,,,,,,,,,,,,,,,,,,2 - 15 + 39 = 27?,,,right,3.7288,0,12,12,0,1,RESPONSE RECORDED,0,right,,,,,,,,,,,,,,,,,,,,,,,,,,,,,,,,,,,,,,,
,,,,,,,,,,,kolobabs,woman,23,4-6h,2021-12-06_13h25.11.791,bachelor,2021.2.3,MacIntel,60.0024001,,,,,,,,,,,,,,,,,,,,47 + 13 - 7 = 53?,,,left,2.9756,0,13,13,11,1,RESPONSE RECORDED,1,left,,,,,,,,,,,,,,,,,,,,,,,,,,,,,,,,,,,,,,,
,,,,,,,,,,,kolobabs,woman,23,4-6h,2021-12-06_13h25.11.791,bachelor,2021.2.3,MacIntel,60.0024001,,,,,,,,,,,,,,,,,,,,20 x 2 - 77 = 24?,,,,,,,,,,YOU NEED TO CONCENTRATE,0,right,space,7.0632,right,3.7132,0,0,0,11,1,,,,,,,,,,,,,,,,,,,,,,,,,,,,,,
,,,,,,,,,,,kolobabs,woman,23,4-6h,2021-12-06_13h25.11.791,bachelor,2021.2.3,MacIntel,60.0024001,,,,,,,,,,,,,,,,,,,,10 x 11 + 45 = 155?,,,,,,,,,,RESPONSE RECORDED,1,left,,,left,4.0014,0,1,1,10,1,,,,,,,,,,,,,,,,,,,,,,,,,,,,,,
,,,,,,,,,,,kolobabs,woman,23,4-6h,2021-12-06_13h25.11.791,bachelor,2021.2.3,MacIntel,60.0024001,,,,,,,,,,,,,,,,,,,,62 - 15 x 3 = 5?,,,,,,,,,,PAY ATTENTION,0,right,,,right,2.9061,0,2,2,8,1,,,,,,,,,,,,,,,,,,,,,,,,,,,,,,
,,,,,,,,,,,kolobabs,woman,23,4-6h,2021-12-06_13h25.11.791,bachelor,2021.2.3,MacIntel,60.0024001,,,,,,,,,,,,,,,,,,,,6 - 13 + 4 = -3?,,,,,,,,,,CONCENTRATE,1,left,,,,,0,3,3,3,1,,,,,,,,,,,,,,,,,,,,,,,,,,,,,,
,,,,,,,,,,,kolobabs,woman,23,4-6h,2021-12-06_13h25.11.791,bachelor,2021.2.3,MacIntel,60.0024001,,,,,,,,,,,,,,,,,,,,12 + 10 x 4 = 70?,,,,,,,,,,RESPONSE RECORDED,0,right,,,right,1.6892,0,4,4,6,1,,,,,,,,,,,,,,,,,,,,,,,,,,,,,,
,,,,,,,,,,,kolobabs,woman,23,4-6h,2021-12-06_13h25.11.791,bachelor,2021.2.3,MacIntel,60.0024001,,,,,,,,,,,,,,,,,,,,56 - 6 x 3 = 33?,,,,,,,,,,SPEED UP,0,right,,,right,4.3911,0,5,5,1,1,,,,,,,,,,,,,,,,,,,,,,,,,,,,,,
,,,,,,,,,,,kolobabs,woman,23,4-6h,2021-12-06_13h25.11.791,bachelor,2021.2.3,MacIntel,60.0024001,,,,,,,,,,,,,,,,,,,,13 x 3 + 2 = 90?,,,,,,,,,,RESPONSE RECORDED,0,right,,,right,2.4909,0,6,6,12,1,,,,,,,,,,,,,,,,,,,,,,,,,,,,,,
,,,,,,,,,,,kolobabs,woman,23,4-6h,2021-12-06_13h25.11.791,bachelor,2021.2.3,MacIntel,60.0024001,,,,,,,,,,,,,,,,,,,,7 + 46 + 16 = 67?,,,,,,,,,,RESPONSE RECORDED,0,right,,,right,4.5476,0,7,7,4,1,,,,,,,,,,,,,,,,,,,,,,,,,,,,,,
,,,,,,,,,,,kolobabs,woman,23,4-6h,2021-12-06_13h25.11.791,bachelor,2021.2.3,MacIntel,60.0024001,,,,,,,,,,,,,,,,,,,,55 - 66 + 14 = 3?,,,,,,,,,,RESPONSE RECORDED,1,left,,,left,3.9382,0,8,8,13,1,,,,,,,,,,,,,,,,,,,,,,,,,,,,,,
,,,,,,,,,,,kolobabs,woman,23,4-6h,2021-12-06_13h25.11.791,bachelor,2021.2.3,MacIntel,60.0024001,,,,,,,,,,,,,,,,,,,,7 - 8 - 9 = -11?,,,,,,,,,,SPEED UP,0,right,,,right,1.8096,0,9,9,7,1,,,,,,,,,,,,,,,,,,,,,,,,,,,,,,
,,,,,,,,,,,kolobabs,woman,23,4-6h,2021-12-06_13h25.11.791,bachelor,2021.2.3,MacIntel,60.0024001,,,,,,,,,,,,,,,,,,,,17 x 2 - 10 = 24?,,,,,,,,,,RESPONSE RECORDED,1,left,,,right,3.978,0,10,10,0,1,,,,,,,,,,,,,,,,,,,,,,,,,,,,,,
,,,,,,,,,,,kolobabs,woman,23,4-6h,2021-12-06_13h25.11.791,bachelor,2021.2.3,MacIntel,60.0024001,,,,,,,,,,,,,,,,,,,,7 x 11 - 21 = 56?,,,,,,,,,,GO FASTER,1,left,,,left,4.696,0,11,11,9,1,,,,,,,,,,,,,,,,,,,,,,,,,,,,,,
,,,,,,,,,,,kolobabs,woman,23,4-6h,2021-12-06_13h25.11.791,bachelor,2021.2.3,MacIntel,60.0024001,,,,,,,,,,,,,,,,,,,,33 - 15 - 49 = -40?,,,,,,,,,,TRY HARDER,0,right,,,right,3.4433,0,12,12,5,1,,,,,,,,,,,,,,,,,,,,,,,,,,,,,,
,,,,,,,,,,,kolobabs,woman,23,4-6h,2021-12-06_13h25.11.791,bachelor,2021.2.3,MacIntel,60.0024001,,,,,,,,,,,,,,,,,,,,2 x 40 + 10 = 800?,,,,,,,,,,RESPONSE RECORDED,0,right,,,right,1.6895,0,13,13,2,1,,,,,,,,,,,,,,,,,,,,,,,,,,,,,,
,,,,,,,,,"You have now completed the mental arithmetic task. You are halfway through the experiment.

Press SPACE to continue",,kolobabs,woman,23,4-6h,2021-12-06_13h25.11.791,bachelor,2021.2.3,MacIntel,60.0024001,,,,,,,,,,,,,,,,,,,,,,,,,,,,,,,,,,,,,,,,,,space,4.3669,0,0,0,0,1,,,,,,,,,,,,,,,,,,,,,,,
,,,,,,,,,,,kolobabs,woman,23,4-6h,2021-12-06_13h25.11.791,bachelor,2021.2.3,MacIntel,60.0024001,,,,,,,,,,nose,,,,,,,,,,,,,,,,,,,,,,,,,,,,,,,,,,,,,,,space,7.2188,left,2.6465,0,0,0,26,1,,,,,,,,,,,,,,
,,,,,,,,,,,kolobabs,woman,23,4-6h,2021-12-06_13h25.11.791,bachelor,2021.2.3,MacIntel,60.0024001,,,,,,,,,,mouth,,,,,,,,,,,,,,,,,,,,,,,,,,,,,,,,,,,,,,,,,left,1.3353,0,1,1,24,1,,,,,,,,,,,,,,
,,,,,,,,,,,kolobabs,woman,23,4-6h,2021-12-06_13h25.11.791,bachelor,2021.2.3,MacIntel,60.0024001,,,,,,,,,,school,,,,,,,,,,,,,,,,,,,,,,,,,,,,,,,,,,,,,,,,,right,1.6852,0,2,2,10,1,,,,,,,,,,,,,,
,,,,,,,,,,,kolobabs,woman,23,4-6h,2021-12-06_13h25.11.791,bachelor,2021.2.3,MacIntel,60.0024001,,,,,,,,,,leg,,,,,,,,,,,,,,,,,,,,,,,,,,,,,,,,,,,,,,,,,right,0.7682,0,3,3,2,1,,,,,,,,,,,,,,
,,,,,,,,,,,kolobabs,woman,23,4-6h,2021-12-06_13h25.11.791,bachelor,2021.2.3,MacIntel,60.0024001,,,,,,,,,,stole,,,,,,,,,,,,,,,,,,,,,,,,,,,,,,,,,,,,,,,,,left,3.8469,0,4,4,3,1,,,,,,,,,,,,,,
,,,,,,,,,,,kolobabs,woman,23,4-6h,2021-12-06_13h25.11.791,bachelor,2021.2.3,MacIntel,60.0024001,,,,,,,,,,shiny,,,,,,,,,,,,,,,,,,,,,,,,,,,,,,,,,,,,,,,,,right,2.4268,0,5,5,25,1,,,,,,,,,,,,,,
,,,,,,,,,,,kolobabs,woman,23,4-6h,2021-12-06_13h25.11.791,bachelor,2021.2.3,MacIntel,60.0024001,,,,,,,,,,sled,,,,,,,,,,,,,,,,,,,,,,,,,,,,,,,,,,,,,,,,,right,1.7704,0,6,6,5,1,,,,,,,,,,,,,,
,,,,,,,,,,,kolobabs,woman,23,4-6h,2021-12-06_13h25.11.791,bachelor,2021.2.3,MacIntel,60.0024001,,,,,,,,,,football,,,,,,,,,,,,,,,,,,,,,,,,,,,,,,,,,,,,,,,,,right,1.1043,0,7,7,27,1,,,,,,,,,,,,,,
,,,,,,,,,,,kolobabs,woman,23,4-6h,2021-12-06_13h25.11.791,bachelor,2021.2.3,MacIntel,60.0024001,,,,,,,,,,actor,,,,,,,,,,,,,,,,,,,,,,,,,,,,,,,,,,,,,,,,,right,1.333,0,8,8,23,1,,,,,,,,,,,,,,
,,,,,,,,,,,kolobabs,woman,23,4-6h,2021-12-06_13h25.11.791,bachelor,2021.2.3,MacIntel,60.0024001,,,,,,,,,,truck,,,,,,,,,,,,,,,,,,,,,,,,,,,,,,,,,,,,,,,,,right,1.6048,0,9,9,17,1,,,,,,,,,,,,,,
,,,,,,,,,,,kolobabs,woman,23,4-6h,2021-12-06_13h25.11.791,bachelor,2021.2.3,MacIntel,60.0024001,,,,,,,,,,ate,,,,,,,,,,,,,,,,,,,,,,,,,,,,,,,,,,,,,,,,,left,2.5565,0,10,10,4,1,,,,,,,,,,,,,,
,,,,,,,,,,,kolobabs,woman,23,4-6h,2021-12-06_13h25.11.791,bachelor,2021.2.3,MacIntel,60.0024001,,,,,,,,,,diplomat,,,,,,,,,,,,,,,,,,,,,,,,,,,,,,,,,,,,,,,,,right,2.9707,0,11,11,20,1,,,,,,,,,,,,,,
,,,,,,,,,,,kolobabs,woman,23,4-6h,2021-12-06_13h25.11.791,bachelor,2021.2.3,MacIntel,60.0024001,,,,,,,,,,squeal,,,,,,,,,,,,,,,,,,,,,,,,,,,,,,,,,,,,,,,,,left,2.887,0,12,12,9,1,,,,,,,,,,,,,,
,,,,,,,,,,,kolobabs,woman,23,4-6h,2021-12-06_13h25.11.791,bachelor,2021.2.3,MacIntel,60.0024001,,,,,,,,,,student,,,,,,,,,,,,,,,,,,,,,,,,,,,,,,,,,,,,,,,,,left,1.2526,0,13,13,18,1,,,,,,,,,,,,,,
,,,,,,,,,,,kolobabs,woman,23,4-6h,2021-12-06_13h25.11.791,bachelor,2021.2.3,MacIntel,60.0024001,,,,,,,,,,clang,,,,,,,,,,,,,,,,,,,,,,,,,,,,,,,,,,,,,,,,,right,0.9403,0,14,14,13,1,,,,,,,,,,,,,,
,,,,,,,,,,,kolobabs,woman,23,4-6h,2021-12-06_13h25.11.791,bachelor,2021.2.3,MacIntel,60.0024001,,,,,,,,,,embassy,,,,,,,,,,,,,,,,,,,,,,,,,,,,,,,,,,,,,,,,,left,4.3697,0,15,15,6,1,,,,,,,,,,,,,,
,,,,,,,,,,,kolobabs,woman,23,4-6h,2021-12-06_13h25.11.791,bachelor,2021.2.3,MacIntel,60.0024001,,,,,,,,,,bridge,,,,,,,,,,,,,,,,,,,,,,,,,,,,,,,,,,,,,,,,,left,1.4432,0,16,16,14,1,,,,,,,,,,,,,,
,,,,,,,,,,,kolobabs,woman,23,4-6h,2021-12-06_13h25.11.791,bachelor,2021.2.3,MacIntel,60.0024001,,,,,,,,,,soft,,,,,,,,,,,,,,,,,,,,,,,,,,,,,,,,,,,,,,,,,left,2.2524,0,17,17,11,1,,,,,,,,,,,,,,
,,,,,,,,,,,kolobabs,woman,23,4-6h,2021-12-06_13h25.11.791,bachelor,2021.2.3,MacIntel,60.0024001,,,,,,,,,,politician,,,,,,,,,,,,,,,,,,,,,,,,,,,,,,,,,,,,,,,,,right,1.4889,0,18,18,22,1,,,,,,,,,,,,,,
,,,,,,,,,,,kolobabs,woman,23,4-6h,2021-12-06_13h25.11.791,bachelor,2021.2.3,MacIntel,60.0024001,,,,,,,,,,rocket,,,,,,,,,,,,,,,,,,,,,,,,,,,,,,,,,,,,,,,,,right,1.6718,0,19,19,15,1,,,,,,,,,,,,,,
,,,,,,,,,,,kolobabs,woman,23,4-6h,2021-12-06_13h25.11.791,bachelor,2021.2.3,MacIntel,60.0024001,,,,,,,,,,farm,,,,,,,,,,,,,,,,,,,,,,,,,,,,,,,,,,,,,,,,,right,2.2356,0,20,20,12,1,,,,,,,,,,,,,,
,,,,,,,,,,,kolobabs,woman,23,4-6h,2021-12-06_13h25.11.791,bachelor,2021.2.3,MacIntel,60.0024001,,,,,,,,,,store,,,,,,,,,,,,,,,,,,,,,,,,,,,,,,,,,,,,,,,,,right,0.9341,0,21,21,8,1,,,,,,,,,,,,,,
,,,,,,,,,,,kolobabs,woman,23,4-6h,2021-12-06_13h25.11.791,bachelor,2021.2.3,MacIntel,60.0024001,,,,,,,,,,businessman,,,,,,,,,,,,,,,,,,,,,,,,,,,,,,,,,,,,,,,,,left,2.1042,0,22,22,16,1,,,,,,,,,,,,,,
,,,,,,,,,,,kolobabs,woman,23,4-6h,2021-12-06_13h25.11.791,bachelor,2021.2.3,MacIntel,60.0024001,,,,,,,,,,delirium,,,,,,,,,,,,,,,,,,,,,,,,,,,,,,,,,,,,,,,,,right,1.1751,0,23,23,7,1,,,,,,,,,,,,,,
,,,,,,,,,,,kolobabs,woman,23,4-6h,2021-12-06_13h25.11.791,bachelor,2021.2.3,MacIntel,60.0024001,,,,,,,,,,volcano,,,,,,,,,,,,,,,,,,,,,,,,,,,,,,,,,,,,,,,,,right,0.8998,0,24,24,19,1,,,,,,,,,,,,,,
,,,,,,,,,,,kolobabs,woman,23,4-6h,2021-12-06_13h25.11.791,bachelor,2021.2.3,MacIntel,60.0024001,,,,,,,,,,thunder,,,,,,,,,,,,,,,,,,,,,,,,,,,,,,,,,,,,,,,,,right,1.2341,0,25,25,21,1,,,,,,,,,,,,,,
,,,,,,,,,,,kolobabs,woman,23,4-6h,2021-12-06_13h25.11.791,bachelor,2021.2.3,MacIntel,60.0024001,,,,,,,,,,handshake,,,,,,,,,,,,,,,,,,,,,,,,,,,,,,,,,,,,,,,,,left,2.752,0,26,26,1,1,,,,,,,,,,,,,,
,,,,,,,,,,,kolobabs,woman,23,4-6h,2021-12-06_13h25.11.791,bachelor,2021.2.3,MacIntel,60.0024001,,,,,,,,,,jaw,,,,,,,,,,,,,,,,,,,,,,,,,,,,,,,,,,,,,,,,,left,1.0897,0,27,27,0,1,,,,,,,,,,,,,,
,,,,,,,,,,,kolobabs,woman,23,4-6h,2021-12-06_13h25.11.791,bachelor,2021.2.3,MacIntel,60.0024001,,,,,,,,,,,,,,,,,,,,,,,,,,,,,,,,,,,,,,,,,,,,,,,,,,,,,,,,,,space,5.5826,4,10.3419,0,0,0,0,1,I felt excluded during the experiment.,,,,
,,,,,,,,,,,kolobabs,woman,23,4-6h,2021-12-06_13h25.11.791,bachelor,2021.2.3,MacIntel,60.0024001,,,,,,,,,,,,,,,,,,,,,,,,,,,,,,,,,,,,,,,,,,,,,,,,,,,,,,,,,,,,6,4.7689,0,1,1,2,1,I felt alone during the experiment.,,,,
,,,,,,,,,,,kolobabs,woman,23,4-6h,2021-12-06_13h25.11.791,bachelor,2021.2.3,MacIntel,60.0024001,,,,,,,,,,,,,,,,,,,,,,,,,,,,,,,,,,,,,,,,,,,,,,,,,,,,,,,,,,,,6,5.5947,0,2,2,3,1,I felt stressed during the experiment.,,,,
,,,,,,,,,,,kolobabs,woman,23,4-6h,2021-12-06_13h25.11.791,bachelor,2021.2.3,MacIntel,60.0024001,,,,,,,,,,,,,,,,,,,,,,,,,,,,,,,,,,,,,,,,,,,,,,,,,,,,,,,,,,,,7,6.0546,0,3,3,1,1,Negative feedback showed me that I had lower task competencies than the other participants.,,,,
,,,,,,,,,,,kolobabs,woman,23,4-6h,2021-12-06_13h25.11.791,bachelor,2021.2.3,MacIntel,60.0024001,,,,,,,,,,,,,,,,,,,,,,,,,,,,,,,,,,,,,,,,,,,,,,,,,,,,,,,,,,,,,,,,,,,,space,21.6076,space,8.0311
