key_resp_17.keys,key_resp_17.rt,key_resp_13.keys,key_resp_13.rt,trials_5.thisRepN,trials_5.thisTrialN,trials_5.thisN,trials_5.thisIndex,trials_5.ran,Text,Condition,participant,Gender*,Age*,Estimated hours since last sleep*,date,expName,psychopyVersion,OS,frameRate,fbclid,key_resp_2.keys,key_resp_2.rt,key_resp_11.keys,key_resp_11.rt,trials_6.thisRepN,trials_6.thisTrialN,trials_6.thisN,trials_6.thisIndex,trials_6.ran,Word,key_resp_3.keys,key_resp_3.rt,key_resp_9.keys,trials_2.thisRepN,trials_2.thisTrialN,trials_2.thisN,trials_2.thisIndex,trials_2.ran,Stimuli,key_resp_9.rt,keyrespp.keys,keyrespp.rt,key_resp_4.keys,trials.thisRepN,trials.thisTrialN,trials.thisN,trials.thisIndex,trials.ran,Response,Congr,RightAns,key_resp_4.rt,key_resp_8.keys,key_resp_8.rt,key_resp_10.keys,key_resp_10.rt,trials_4.thisRepN,trials_4.thisTrialN,trials_4.thisN,trials_4.thisIndex,trials_4.ran,key_resp_14.keys,key_resp_14.rt,trials_7.thisRepN,trials_7.thisTrialN,trials_7.thisN,trials_7.thisIndex,trials_7.ran,key_resp_5.keys,key_resp_5.rt,key_resp_12.keys,key_resp_12.rt,trials_3.thisRepN,trials_3.thisTrialN,trials_3.thisN,trials_3.thisIndex,trials_3.ran,key_resp_6.keys,key_resp_6.rt,key_resp_15.keys,key_resp_15.rt,socialexc.thisRepN,socialexc.thisTrialN,socialexc.thisN,socialexc.thisIndex,socialexc.ran,Question,key_resp_7.keys,key_resp_7.rt,key_resp_16.keys,key_resp_16.rt
y,17.1312,space,2.8259,0,0,0,0,1,"
Please complete all tasks. It will take no more than 5-10 minutes.

Press any key to start the experiment",0,M24,man,24,4-6h,2021-12-11_18h10.46.274,bachelor,2021.2.3,Win32,60.29181237,IwAR2Q7jZKIq7PnqEC-VFvwAdnbxakit3fX_VvYV9IJgwedJLOMhHyzayGzxI,,,,,,,,,,,,,,,,,,,,,,,,,,,,,,,,,,,,,,,,,,,,,,,,,,,,,,,,,,,,,,,,,,,,,,,
,,,,,,,,,,,M24,man,24,4-6h,2021-12-11_18h10.46.274,bachelor,2021.2.3,Win32,60.29181237,IwAR2Q7jZKIq7PnqEC-VFvwAdnbxakit3fX_VvYV9IJgwedJLOMhHyzayGzxI,space,14.6994,right,2.2726,0,0,0,14,1,tourist,,,,,,,,,,,,,,,,,,,,,,,,,,,,,,,,,,,,,,,,,,,,,,,,,,,,,,,,,,,,,
,,,,,,,,,,,M24,man,24,4-6h,2021-12-11_18h10.46.274,bachelor,2021.2.3,Win32,60.29181237,IwAR2Q7jZKIq7PnqEC-VFvwAdnbxakit3fX_VvYV9IJgwedJLOMhHyzayGzxI,,,left,2.0825,0,1,1,7,1,cough,,,,,,,,,,,,,,,,,,,,,,,,,,,,,,,,,,,,,,,,,,,,,,,,,,,,,,,,,,,,,
,,,,,,,,,,,M24,man,24,4-6h,2021-12-11_18h10.46.274,bachelor,2021.2.3,Win32,60.29181237,IwAR2Q7jZKIq7PnqEC-VFvwAdnbxakit3fX_VvYV9IJgwedJLOMhHyzayGzxI,,,right,2.3915,0,2,2,3,1,foot,,,,,,,,,,,,,,,,,,,,,,,,,,,,,,,,,,,,,,,,,,,,,,,,,,,,,,,,,,,,,
,,,,,,,,,,,M24,man,24,4-6h,2021-12-11_18h10.46.274,bachelor,2021.2.3,Win32,60.29181237,IwAR2Q7jZKIq7PnqEC-VFvwAdnbxakit3fX_VvYV9IJgwedJLOMhHyzayGzxI,,,left,2.4262,0,3,3,12,1,forest,,,,,,,,,,,,,,,,,,,,,,,,,,,,,,,,,,,,,,,,,,,,,,,,,,,,,,,,,,,,,
,,,,,,,,,,,M24,man,24,4-6h,2021-12-11_18h10.46.274,bachelor,2021.2.3,Win32,60.29181237,IwAR2Q7jZKIq7PnqEC-VFvwAdnbxakit3fX_VvYV9IJgwedJLOMhHyzayGzxI,,,left,2.195,0,4,4,26,1,eye,,,,,,,,,,,,,,,,,,,,,,,,,,,,,,,,,,,,,,,,,,,,,,,,,,,,,,,,,,,,,
,,,,,,,,,,,M24,man,24,4-6h,2021-12-11_18h10.46.274,bachelor,2021.2.3,Win32,60.29181237,IwAR2Q7jZKIq7PnqEC-VFvwAdnbxakit3fX_VvYV9IJgwedJLOMhHyzayGzxI,,,right,2.024,0,5,5,15,1,minister,,,,,,,,,,,,,,,,,,,,,,,,,,,,,,,,,,,,,,,,,,,,,,,,,,,,,,,,,,,,,
,,,,,,,,,,,M24,man,24,4-6h,2021-12-11_18h10.46.274,bachelor,2021.2.3,Win32,60.29181237,IwAR2Q7jZKIq7PnqEC-VFvwAdnbxakit3fX_VvYV9IJgwedJLOMhHyzayGzxI,,,right,1.8081,0,6,6,13,1,belch,,,,,,,,,,,,,,,,,,,,,,,,,,,,,,,,,,,,,,,,,,,,,,,,,,,,,,,,,,,,,
,,,,,,,,,,,M24,man,24,4-6h,2021-12-11_18h10.46.274,bachelor,2021.2.3,Win32,60.29181237,IwAR2Q7jZKIq7PnqEC-VFvwAdnbxakit3fX_VvYV9IJgwedJLOMhHyzayGzxI,,,right,1.9047,0,7,7,25,1,soccer,,,,,,,,,,,,,,,,,,,,,,,,,,,,,,,,,,,,,,,,,,,,,,,,,,,,,,,,,,,,,
,,,,,,,,,,,M24,man,24,4-6h,2021-12-11_18h10.46.274,bachelor,2021.2.3,Win32,60.29181237,IwAR2Q7jZKIq7PnqEC-VFvwAdnbxakit3fX_VvYV9IJgwedJLOMhHyzayGzxI,,,left,1.7879,0,8,8,24,1,lip,,,,,,,,,,,,,,,,,,,,,,,,,,,,,,,,,,,,,,,,,,,,,,,,,,,,,,,,,,,,,
,,,,,,,,,,,M24,man,24,4-6h,2021-12-11_18h10.46.274,bachelor,2021.2.3,Win32,60.29181237,IwAR2Q7jZKIq7PnqEC-VFvwAdnbxakit3fX_VvYV9IJgwedJLOMhHyzayGzxI,,,left,1.9725,0,9,9,5,1,cold,,,,,,,,,,,,,,,,,,,,,,,,,,,,,,,,,,,,,,,,,,,,,,,,,,,,,,,,,,,,,
,,,,,,,,,,,M24,man,24,4-6h,2021-12-11_18h10.46.274,bachelor,2021.2.3,Win32,60.29181237,IwAR2Q7jZKIq7PnqEC-VFvwAdnbxakit3fX_VvYV9IJgwedJLOMhHyzayGzxI,,,right,2.1849,0,10,10,1,1,ricochet,,,,,,,,,,,,,,,,,,,,,,,,,,,,,,,,,,,,,,,,,,,,,,,,,,,,,,,,,,,,,
,,,,,,,,,,,M24,man,24,4-6h,2021-12-11_18h10.46.274,bachelor,2021.2.3,Win32,60.29181237,IwAR2Q7jZKIq7PnqEC-VFvwAdnbxakit3fX_VvYV9IJgwedJLOMhHyzayGzxI,,,left,2.2369,0,11,11,10,1,church,,,,,,,,,,,,,,,,,,,,,,,,,,,,,,,,,,,,,,,,,,,,,,,,,,,,,,,,,,,,,
,,,,,,,,,,,M24,man,24,4-6h,2021-12-11_18h10.46.274,bachelor,2021.2.3,Win32,60.29181237,IwAR2Q7jZKIq7PnqEC-VFvwAdnbxakit3fX_VvYV9IJgwedJLOMhHyzayGzxI,,,left,1.6898,0,12,12,27,1,applause,,,,,,,,,,,,,,,,,,,,,,,,,,,,,,,,,,,,,,,,,,,,,,,,,,,,,,,,,,,,,
,,,,,,,,,,,M24,man,24,4-6h,2021-12-11_18h10.46.274,bachelor,2021.2.3,Win32,60.29181237,IwAR2Q7jZKIq7PnqEC-VFvwAdnbxakit3fX_VvYV9IJgwedJLOMhHyzayGzxI,,,right,2.0859,0,13,13,11,1,gasp,,,,,,,,,,,,,,,,,,,,,,,,,,,,,,,,,,,,,,,,,,,,,,,,,,,,,,,,,,,,,
,,,,,,,,,,,M24,man,24,4-6h,2021-12-11_18h10.46.274,bachelor,2021.2.3,Win32,60.29181237,IwAR2Q7jZKIq7PnqEC-VFvwAdnbxakit3fX_VvYV9IJgwedJLOMhHyzayGzxI,,,right,7.4839,0,14,14,17,1,scientist,,,,,,,,,,,,,,,,,,,,,,,,,,,,,,,,,,,,,,,,,,,,,,,,,,,,,,,,,,,,,
,,,,,,,,,,,M24,man,24,4-6h,2021-12-11_18h10.46.274,bachelor,2021.2.3,Win32,60.29181237,IwAR2Q7jZKIq7PnqEC-VFvwAdnbxakit3fX_VvYV9IJgwedJLOMhHyzayGzxI,,,left,3.5258,0,15,15,4,1,hospital,,,,,,,,,,,,,,,,,,,,,,,,,,,,,,,,,,,,,,,,,,,,,,,,,,,,,,,,,,,,,
,,,,,,,,,,,M24,man,24,4-6h,2021-12-11_18h10.46.274,bachelor,2021.2.3,Win32,60.29181237,IwAR2Q7jZKIq7PnqEC-VFvwAdnbxakit3fX_VvYV9IJgwedJLOMhHyzayGzxI,,,left,1.4979,0,16,16,23,1,fee,,,,,,,,,,,,,,,,,,,,,,,,,,,,,,,,,,,,,,,,,,,,,,,,,,,,,,,,,,,,,
,,,,,,,,,,,M24,man,24,4-6h,2021-12-11_18h10.46.274,bachelor,2021.2.3,Win32,60.29181237,IwAR2Q7jZKIq7PnqEC-VFvwAdnbxakit3fX_VvYV9IJgwedJLOMhHyzayGzxI,,,left,2.7201,0,17,17,22,1,woman,,,,,,,,,,,,,,,,,,,,,,,,,,,,,,,,,,,,,,,,,,,,,,,,,,,,,,,,,,,,,
,,,,,,,,,,,M24,man,24,4-6h,2021-12-11_18h10.46.274,bachelor,2021.2.3,Win32,60.29181237,IwAR2Q7jZKIq7PnqEC-VFvwAdnbxakit3fX_VvYV9IJgwedJLOMhHyzayGzxI,,,left,1.9456,0,18,18,6,1,airport,,,,,,,,,,,,,,,,,,,,,,,,,,,,,,,,,,,,,,,,,,,,,,,,,,,,,,,,,,,,,
,,,,,,,,,,,M24,man,24,4-6h,2021-12-11_18h10.46.274,bachelor,2021.2.3,Win32,60.29181237,IwAR2Q7jZKIq7PnqEC-VFvwAdnbxakit3fX_VvYV9IJgwedJLOMhHyzayGzxI,,,right,1.8183,0,19,19,0,1,drank,,,,,,,,,,,,,,,,,,,,,,,,,,,,,,,,,,,,,,,,,,,,,,,,,,,,,,,,,,,,,
,,,,,,,,,,,M24,man,24,4-6h,2021-12-11_18h10.46.274,bachelor,2021.2.3,Win32,60.29181237,IwAR2Q7jZKIq7PnqEC-VFvwAdnbxakit3fX_VvYV9IJgwedJLOMhHyzayGzxI,,,right,2.5135,0,20,20,20,1,journalist,,,,,,,,,,,,,,,,,,,,,,,,,,,,,,,,,,,,,,,,,,,,,,,,,,,,,,,,,,,,,
,,,,,,,,,,,M24,man,24,4-6h,2021-12-11_18h10.46.274,bachelor,2021.2.3,Win32,60.29181237,IwAR2Q7jZKIq7PnqEC-VFvwAdnbxakit3fX_VvYV9IJgwedJLOMhHyzayGzxI,,,right,5.0782,0,21,21,21,1,ambulance,,,,,,,,,,,,,,,,,,,,,,,,,,,,,,,,,,,,,,,,,,,,,,,,,,,,,,,,,,,,,
,,,,,,,,,,,M24,man,24,4-6h,2021-12-11_18h10.46.274,bachelor,2021.2.3,Win32,60.29181237,IwAR2Q7jZKIq7PnqEC-VFvwAdnbxakit3fX_VvYV9IJgwedJLOMhHyzayGzxI,,,left,1.7056,0,22,22,8,1,college,,,,,,,,,,,,,,,,,,,,,,,,,,,,,,,,,,,,,,,,,,,,,,,,,,,,,,,,,,,,,
,,,,,,,,,,,M24,man,24,4-6h,2021-12-11_18h10.46.274,bachelor,2021.2.3,Win32,60.29181237,IwAR2Q7jZKIq7PnqEC-VFvwAdnbxakit3fX_VvYV9IJgwedJLOMhHyzayGzxI,,,right,5.2293,0,23,23,2,1,home,,,,,,,,,,,,,,,,,,,,,,,,,,,,,,,,,,,,,,,,,,,,,,,,,,,,,,,,,,,,,
,,,,,,,,,,,M24,man,24,4-6h,2021-12-11_18h10.46.274,bachelor,2021.2.3,Win32,60.29181237,IwAR2Q7jZKIq7PnqEC-VFvwAdnbxakit3fX_VvYV9IJgwedJLOMhHyzayGzxI,,,right,2.7888,0,24,24,18,1,screech,,,,,,,,,,,,,,,,,,,,,,,,,,,,,,,,,,,,,,,,,,,,,,,,,,,,,,,,,,,,,
,,,,,,,,,,,M24,man,24,4-6h,2021-12-11_18h10.46.274,bachelor,2021.2.3,Win32,60.29181237,IwAR2Q7jZKIq7PnqEC-VFvwAdnbxakit3fX_VvYV9IJgwedJLOMhHyzayGzxI,,,left,2.6468,0,25,25,19,1,wonder,,,,,,,,,,,,,,,,,,,,,,,,,,,,,,,,,,,,,,,,,,,,,,,,,,,,,,,,,,,,,
,,,,,,,,,,,M24,man,24,4-6h,2021-12-11_18h10.46.274,bachelor,2021.2.3,Win32,60.29181237,IwAR2Q7jZKIq7PnqEC-VFvwAdnbxakit3fX_VvYV9IJgwedJLOMhHyzayGzxI,,,left,1.7441,0,26,26,9,1,hot,,,,,,,,,,,,,,,,,,,,,,,,,,,,,,,,,,,,,,,,,,,,,,,,,,,,,,,,,,,,,
,,,,,,,,,,,M24,man,24,4-6h,2021-12-11_18h10.46.274,bachelor,2021.2.3,Win32,60.29181237,IwAR2Q7jZKIq7PnqEC-VFvwAdnbxakit3fX_VvYV9IJgwedJLOMhHyzayGzxI,,,left,2.9342,0,27,27,16,1,gunshot,,,,,,,,,,,,,,,,,,,,,,,,,,,,,,,,,,,,,,,,,,,,,,,,,,,,,,,,,,,,,
,,,,,,,,,,,M24,man,24,4-6h,2021-12-11_18h10.46.274,bachelor,2021.2.3,Win32,60.29181237,IwAR2Q7jZKIq7PnqEC-VFvwAdnbxakit3fX_VvYV9IJgwedJLOMhHyzayGzxI,,,,,,,,,,,space,12.7168,,0,0,0,1,1,10 - 18 + 1 = -9?,,,,,,,,,,,,,,,,,,,,,,,,,,,,,,,,,,,,,,,,,,,,,,,,,,,,
,,,,,,,,,,,M24,man,24,4-6h,2021-12-11_18h10.46.274,bachelor,2021.2.3,Win32,60.29181237,IwAR2Q7jZKIq7PnqEC-VFvwAdnbxakit3fX_VvYV9IJgwedJLOMhHyzayGzxI,,,,,,,,,,,,,right,0,1,1,0,1,5 x 5 - 10 = 22?,3.32,,,,,,,,,,,,,,,,,,,,,,,,,,,,,,,,,,,,,,,,,,,,,,,,,,,
,,,,,,,,,,,M24,man,24,4-6h,2021-12-11_18h10.46.274,bachelor,2021.2.3,Win32,60.29181237,IwAR2Q7jZKIq7PnqEC-VFvwAdnbxakit3fX_VvYV9IJgwedJLOMhHyzayGzxI,,,,,,,,,,,,,right,0,2,2,2,1,10 - 5 - 16 = 21?,4.3713,,,,,,,,,,,,,,,,,,,,,,,,,,,,,,,,,,,,,,,,,,,,,,,,,,,
,,,,,,,,,,,M24,man,24,4-6h,2021-12-11_18h10.46.274,bachelor,2021.2.3,Win32,60.29181237,IwAR2Q7jZKIq7PnqEC-VFvwAdnbxakit3fX_VvYV9IJgwedJLOMhHyzayGzxI,,,,,,,,,,,,,left,0,3,3,3,1,2 + 20 x 4 = 82?,2.9455,,,,,,,,,,,,,,,,,,,,,,,,,,,,,,,,,,,,,,,,,,,,,,,,,,,
,,,,,,,,,,,M24,man,24,4-6h,2021-12-11_18h10.46.274,bachelor,2021.2.3,Win32,60.29181237,IwAR2Q7jZKIq7PnqEC-VFvwAdnbxakit3fX_VvYV9IJgwedJLOMhHyzayGzxI,,,,,,,,,,,,,left,0,4,4,4,1,11 + 3 - 7 = 8?,3.4056,,,,,,,,,,,,,,,,,,,,,,,,,,,,,,,,,,,,,,,,,,,,,,,,,,,
,,,,,,,,,,,M24,man,24,4-6h,2021-12-11_18h10.46.274,bachelor,2021.2.3,Win32,60.29181237,IwAR2Q7jZKIq7PnqEC-VFvwAdnbxakit3fX_VvYV9IJgwedJLOMhHyzayGzxI,,,,,,,,,,,,,,,,,,,47 + 13 - 7 = 53?,,space,5.1926,,0,0,0,11,1,RESPONSE RECORDED,1,left,,,,,,,,,,,,,,,,,,,,,,,,,,,,,,,,,,,,,,,,
,,,,,,,,,,,M24,man,24,4-6h,2021-12-11_18h10.46.274,bachelor,2021.2.3,Win32,60.29181237,IwAR2Q7jZKIq7PnqEC-VFvwAdnbxakit3fX_VvYV9IJgwedJLOMhHyzayGzxI,,,,,,,,,,,,,,,,,,,5 x 5 - 29 = -40?,,,,right,0,1,1,7,1,SPEED UP,0,right,2.473,,,,,,,,,,,,,,,,,,,,,,,,,,,,,,,,,,,,,,,
,,,,,,,,,,,M24,man,24,4-6h,2021-12-11_18h10.46.274,bachelor,2021.2.3,Win32,60.29181237,IwAR2Q7jZKIq7PnqEC-VFvwAdnbxakit3fX_VvYV9IJgwedJLOMhHyzayGzxI,,,,,,,,,,,,,,,,,,,2 - 15 + 39 = 27?,,,,right,0,2,2,0,1,RESPONSE RECORDED,0,right,2.9883,,,,,,,,,,,,,,,,,,,,,,,,,,,,,,,,,,,,,,,
,,,,,,,,,,,M24,man,24,4-6h,2021-12-11_18h10.46.274,bachelor,2021.2.3,Win32,60.29181237,IwAR2Q7jZKIq7PnqEC-VFvwAdnbxakit3fX_VvYV9IJgwedJLOMhHyzayGzxI,,,,,,,,,,,,,,,,,,,14 x 2 + 10 = 38?,,,,left,0,3,3,4,1,CONCENTRATE,1,left,2.3333,,,,,,,,,,,,,,,,,,,,,,,,,,,,,,,,,,,,,,,
,,,,,,,,,,,M24,man,24,4-6h,2021-12-11_18h10.46.274,bachelor,2021.2.3,Win32,60.29181237,IwAR2Q7jZKIq7PnqEC-VFvwAdnbxakit3fX_VvYV9IJgwedJLOMhHyzayGzxI,,,,,,,,,,,,,,,,,,,54 - 40 x -2 = - 27?,,,,right,0,4,4,8,1,RESPONSE RECORDED,0,right,2.4921,,,,,,,,,,,,,,,,,,,,,,,,,,,,,,,,,,,,,,,
,,,,,,,,,,,M24,man,24,4-6h,2021-12-11_18h10.46.274,bachelor,2021.2.3,Win32,60.29181237,IwAR2Q7jZKIq7PnqEC-VFvwAdnbxakit3fX_VvYV9IJgwedJLOMhHyzayGzxI,,,,,,,,,,,,,,,,,,,7 x 11 - 21 = 56?,,,,right,0,5,5,9,1,SPEED UP,1,left,3.2422,,,,,,,,,,,,,,,,,,,,,,,,,,,,,,,,,,,,,,,
,,,,,,,,,,,M24,man,24,4-6h,2021-12-11_18h10.46.274,bachelor,2021.2.3,Win32,60.29181237,IwAR2Q7jZKIq7PnqEC-VFvwAdnbxakit3fX_VvYV9IJgwedJLOMhHyzayGzxI,,,,,,,,,,,,,,,,,,,35 - 65 - 20 = - 55?,,,,right,0,6,6,10,1,RESPONSE RECORDED,0,right,3.7333,,,,,,,,,,,,,,,,,,,,,,,,,,,,,,,,,,,,,,,
,,,,,,,,,,,M24,man,24,4-6h,2021-12-11_18h10.46.274,bachelor,2021.2.3,Win32,60.29181237,IwAR2Q7jZKIq7PnqEC-VFvwAdnbxakit3fX_VvYV9IJgwedJLOMhHyzayGzxI,,,,,,,,,,,,,,,,,,,6 - 58 + 11 = -41?,,,,right,0,7,7,3,1,RESPONSE RECORDED,1,left,3.5396,,,,,,,,,,,,,,,,,,,,,,,,,,,,,,,,,,,,,,,
,,,,,,,,,,,M24,man,24,4-6h,2021-12-11_18h10.46.274,bachelor,2021.2.3,Win32,60.29181237,IwAR2Q7jZKIq7PnqEC-VFvwAdnbxakit3fX_VvYV9IJgwedJLOMhHyzayGzxI,,,,,,,,,,,,,,,,,,,2 x 40 + 3 = 84?,,,,right,0,8,8,6,1,RESPONSE RECORDED,0,right,2.4488,,,,,,,,,,,,,,,,,,,,,,,,,,,,,,,,,,,,,,,
,,,,,,,,,,,M24,man,24,4-6h,2021-12-11_18h10.46.274,bachelor,2021.2.3,Win32,60.29181237,IwAR2Q7jZKIq7PnqEC-VFvwAdnbxakit3fX_VvYV9IJgwedJLOMhHyzayGzxI,,,,,,,,,,,,,,,,,,,14 x 2 - 3 = 25?,,,,right,0,9,9,13,1,TRY HARDER,1,left,2.1818,,,,,,,,,,,,,,,,,,,,,,,,,,,,,,,,,,,,,,,
,,,,,,,,,,,M24,man,24,4-6h,2021-12-11_18h10.46.274,bachelor,2021.2.3,Win32,60.29181237,IwAR2Q7jZKIq7PnqEC-VFvwAdnbxakit3fX_VvYV9IJgwedJLOMhHyzayGzxI,,,,,,,,,,,,,,,,,,,50 x 3 + 12 = 147?,,,,right,0,10,10,1,1,SPEED UP,1,left,3.0909,,,,,,,,,,,,,,,,,,,,,,,,,,,,,,,,,,,,,,,
,,,,,,,,,,,M24,man,24,4-6h,2021-12-11_18h10.46.274,bachelor,2021.2.3,Win32,60.29181237,IwAR2Q7jZKIq7PnqEC-VFvwAdnbxakit3fX_VvYV9IJgwedJLOMhHyzayGzxI,,,,,,,,,,,,,,,,,,,53 + 13 x 7 = -150?,,,,right,0,11,11,12,1,YOU’RE NOT TRYING HARD ENOUGH,0,right,3.1933,,,,,,,,,,,,,,,,,,,,,,,,,,,,,,,,,,,,,,,
,,,,,,,,,,,M24,man,24,4-6h,2021-12-11_18h10.46.274,bachelor,2021.2.3,Win32,60.29181237,IwAR2Q7jZKIq7PnqEC-VFvwAdnbxakit3fX_VvYV9IJgwedJLOMhHyzayGzxI,,,,,,,,,,,,,,,,,,,54 + 60 - 1 = 113?,,,,left,0,12,12,5,1,PAY ATTENTION,1,left,4.2153,,,,,,,,,,,,,,,,,,,,,,,,,,,,,,,,,,,,,,,
,,,,,,,,,,,M24,man,24,4-6h,2021-12-11_18h10.46.274,bachelor,2021.2.3,Win32,60.29181237,IwAR2Q7jZKIq7PnqEC-VFvwAdnbxakit3fX_VvYV9IJgwedJLOMhHyzayGzxI,,,,,,,,,,,,,,,,,,,72 + 17 x 3 = 121?,,,,left,0,13,13,2,1,RESPONSE RECORDED,0,right,3.8839,,,,,,,,,,,,,,,,,,,,,,,,,,,,,,,,,,,,,,,
,,,,,,,,,,,M24,man,24,4-6h,2021-12-11_18h10.46.274,bachelor,2021.2.3,Win32,60.29181237,IwAR2Q7jZKIq7PnqEC-VFvwAdnbxakit3fX_VvYV9IJgwedJLOMhHyzayGzxI,,,,,,,,,,,,,,,,,,,20 x 2 - 77 = 24?,,,,,,,,,,YOU NEED TO CONCENTRATE,0,right,,space,8.9067,right,3.7848,0,0,0,11,1,,,,,,,,,,,,,,,,,,,,,,,,,,,,,,
,,,,,,,,,,,M24,man,24,4-6h,2021-12-11_18h10.46.274,bachelor,2021.2.3,Win32,60.29181237,IwAR2Q7jZKIq7PnqEC-VFvwAdnbxakit3fX_VvYV9IJgwedJLOMhHyzayGzxI,,,,,,,,,,,,,,,,,,,13 x 3 + 2 = 90?,,,,,,,,,,RESPONSE RECORDED,0,right,,,,right,3.4371,0,1,1,12,1,,,,,,,,,,,,,,,,,,,,,,,,,,,,,,
,,,,,,,,,,,M24,man,24,4-6h,2021-12-11_18h10.46.274,bachelor,2021.2.3,Win32,60.29181237,IwAR2Q7jZKIq7PnqEC-VFvwAdnbxakit3fX_VvYV9IJgwedJLOMhHyzayGzxI,,,,,,,,,,,,,,,,,,,10 x 11 + 45 = 155?,,,,,,,,,,RESPONSE RECORDED,1,left,,,,left,3.1664,0,2,2,10,1,,,,,,,,,,,,,,,,,,,,,,,,,,,,,,
,,,,,,,,,,,M24,man,24,4-6h,2021-12-11_18h10.46.274,bachelor,2021.2.3,Win32,60.29181237,IwAR2Q7jZKIq7PnqEC-VFvwAdnbxakit3fX_VvYV9IJgwedJLOMhHyzayGzxI,,,,,,,,,,,,,,,,,,,33 - 15 - 49 = -40?,,,,,,,,,,TRY HARDER,0,right,,,,right,2.9554,0,3,3,5,1,,,,,,,,,,,,,,,,,,,,,,,,,,,,,,
,,,,,,,,,,,M24,man,24,4-6h,2021-12-11_18h10.46.274,bachelor,2021.2.3,Win32,60.29181237,IwAR2Q7jZKIq7PnqEC-VFvwAdnbxakit3fX_VvYV9IJgwedJLOMhHyzayGzxI,,,,,,,,,,,,,,,,,,,7 - 8 - 9 = -11?,,,,,,,,,,SPEED UP,0,right,,,,right,3.3385,0,4,4,7,1,,,,,,,,,,,,,,,,,,,,,,,,,,,,,,
,,,,,,,,,,,M24,man,24,4-6h,2021-12-11_18h10.46.274,bachelor,2021.2.3,Win32,60.29181237,IwAR2Q7jZKIq7PnqEC-VFvwAdnbxakit3fX_VvYV9IJgwedJLOMhHyzayGzxI,,,,,,,,,,,,,,,,,,,7 + 46 + 16 = 67?,,,,,,,,,,RESPONSE RECORDED,0,right,,,,,,0,5,5,4,1,,,,,,,,,,,,,,,,,,,,,,,,,,,,,,
,,,,,,,,,,,M24,man,24,4-6h,2021-12-11_18h10.46.274,bachelor,2021.2.3,Win32,60.29181237,IwAR2Q7jZKIq7PnqEC-VFvwAdnbxakit3fX_VvYV9IJgwedJLOMhHyzayGzxI,,,,,,,,,,,,,,,,,,,2 x 40 + 10 = 800?,,,,,,,,,,RESPONSE RECORDED,0,right,,,,right,2.793,0,6,6,2,1,,,,,,,,,,,,,,,,,,,,,,,,,,,,,,
,,,,,,,,,,,M24,man,24,4-6h,2021-12-11_18h10.46.274,bachelor,2021.2.3,Win32,60.29181237,IwAR2Q7jZKIq7PnqEC-VFvwAdnbxakit3fX_VvYV9IJgwedJLOMhHyzayGzxI,,,,,,,,,,,,,,,,,,,6 - 13 + 4 = -3?,,,,,,,,,,CONCENTRATE,1,left,,,,right,2.9079,0,7,7,3,1,,,,,,,,,,,,,,,,,,,,,,,,,,,,,,
,,,,,,,,,,,M24,man,24,4-6h,2021-12-11_18h10.46.274,bachelor,2021.2.3,Win32,60.29181237,IwAR2Q7jZKIq7PnqEC-VFvwAdnbxakit3fX_VvYV9IJgwedJLOMhHyzayGzxI,,,,,,,,,,,,,,,,,,,17 x 2 - 10 = 24?,,,,,,,,,,RESPONSE RECORDED,1,left,,,,right,3.0556,0,8,8,0,1,,,,,,,,,,,,,,,,,,,,,,,,,,,,,,
,,,,,,,,,,,M24,man,24,4-6h,2021-12-11_18h10.46.274,bachelor,2021.2.3,Win32,60.29181237,IwAR2Q7jZKIq7PnqEC-VFvwAdnbxakit3fX_VvYV9IJgwedJLOMhHyzayGzxI,,,,,,,,,,,,,,,,,,,62 - 15 x 3 = 5?,,,,,,,,,,PAY ATTENTION,0,right,,,,,,0,9,9,8,1,,,,,,,,,,,,,,,,,,,,,,,,,,,,,,
,,,,,,,,,,,M24,man,24,4-6h,2021-12-11_18h10.46.274,bachelor,2021.2.3,Win32,60.29181237,IwAR2Q7jZKIq7PnqEC-VFvwAdnbxakit3fX_VvYV9IJgwedJLOMhHyzayGzxI,,,,,,,,,,,,,,,,,,,12 + 10 x 4 = 70?,,,,,,,,,,RESPONSE RECORDED,0,right,,,,right,2.6054,0,10,10,6,1,,,,,,,,,,,,,,,,,,,,,,,,,,,,,,
,,,,,,,,,,,M24,man,24,4-6h,2021-12-11_18h10.46.274,bachelor,2021.2.3,Win32,60.29181237,IwAR2Q7jZKIq7PnqEC-VFvwAdnbxakit3fX_VvYV9IJgwedJLOMhHyzayGzxI,,,,,,,,,,,,,,,,,,,7 x 11 - 21 = 56?,,,,,,,,,,GO FASTER,1,left,,,,left,3.089,0,11,11,9,1,,,,,,,,,,,,,,,,,,,,,,,,,,,,,,
,,,,,,,,,,,M24,man,24,4-6h,2021-12-11_18h10.46.274,bachelor,2021.2.3,Win32,60.29181237,IwAR2Q7jZKIq7PnqEC-VFvwAdnbxakit3fX_VvYV9IJgwedJLOMhHyzayGzxI,,,,,,,,,,,,,,,,,,,56 - 6 x 3 = 33?,,,,,,,,,,SPEED UP,0,right,,,,left,2.9986,0,12,12,1,1,,,,,,,,,,,,,,,,,,,,,,,,,,,,,,
,,,,,,,,,,,M24,man,24,4-6h,2021-12-11_18h10.46.274,bachelor,2021.2.3,Win32,60.29181237,IwAR2Q7jZKIq7PnqEC-VFvwAdnbxakit3fX_VvYV9IJgwedJLOMhHyzayGzxI,,,,,,,,,,,,,,,,,,,55 - 66 + 14 = 3?,,,,,,,,,,RESPONSE RECORDED,1,left,,,,left,3.2542,0,13,13,13,1,,,,,,,,,,,,,,,,,,,,,,,,,,,,,,
,,,,,,,,,"You have now completed the mental arithmetic task. You are halfway through the experiment.

Press SPACE to continue",,M24,man,24,4-6h,2021-12-11_18h10.46.274,bachelor,2021.2.3,Win32,60.29181237,IwAR2Q7jZKIq7PnqEC-VFvwAdnbxakit3fX_VvYV9IJgwedJLOMhHyzayGzxI,,,,,,,,,,,,,,,,,,,,,,,,,,,,,,,,,,,,,,,,,,space,6.0117,0,0,0,0,1,,,,,,,,,,,,,,,,,,,,,,,
,,,,,,,,,,,M24,man,24,4-6h,2021-12-11_18h10.46.274,bachelor,2021.2.3,Win32,60.29181237,IwAR2Q7jZKIq7PnqEC-VFvwAdnbxakit3fX_VvYV9IJgwedJLOMhHyzayGzxI,,,,,,,,,,shiny,,,,,,,,,,,,,,,,,,,,,,,,,,,,,,,,,,,,,,,space,6.2107,left,1.9536,0,0,0,25,1,,,,,,,,,,,,,,
,,,,,,,,,,,M24,man,24,4-6h,2021-12-11_18h10.46.274,bachelor,2021.2.3,Win32,60.29181237,IwAR2Q7jZKIq7PnqEC-VFvwAdnbxakit3fX_VvYV9IJgwedJLOMhHyzayGzxI,,,,,,,,,,politician,,,,,,,,,,,,,,,,,,,,,,,,,,,,,,,,,,,,,,,,,right,3.9389,0,1,1,22,1,,,,,,,,,,,,,,
,,,,,,,,,,,M24,man,24,4-6h,2021-12-11_18h10.46.274,bachelor,2021.2.3,Win32,60.29181237,IwAR2Q7jZKIq7PnqEC-VFvwAdnbxakit3fX_VvYV9IJgwedJLOMhHyzayGzxI,,,,,,,,,,ate,,,,,,,,,,,,,,,,,,,,,,,,,,,,,,,,,,,,,,,,,right,2.0617,0,2,2,4,1,,,,,,,,,,,,,,
,,,,,,,,,,,M24,man,24,4-6h,2021-12-11_18h10.46.274,bachelor,2021.2.3,Win32,60.29181237,IwAR2Q7jZKIq7PnqEC-VFvwAdnbxakit3fX_VvYV9IJgwedJLOMhHyzayGzxI,,,,,,,,,,store,,,,,,,,,,,,,,,,,,,,,,,,,,,,,,,,,,,,,,,,,left,2.2804,0,3,3,8,1,,,,,,,,,,,,,,
,,,,,,,,,,,M24,man,24,4-6h,2021-12-11_18h10.46.274,bachelor,2021.2.3,Win32,60.29181237,IwAR2Q7jZKIq7PnqEC-VFvwAdnbxakit3fX_VvYV9IJgwedJLOMhHyzayGzxI,,,,,,,,,,embassy,,,,,,,,,,,,,,,,,,,,,,,,,,,,,,,,,,,,,,,,,right,1.556,0,4,4,6,1,,,,,,,,,,,,,,
,,,,,,,,,,,M24,man,24,4-6h,2021-12-11_18h10.46.274,bachelor,2021.2.3,Win32,60.29181237,IwAR2Q7jZKIq7PnqEC-VFvwAdnbxakit3fX_VvYV9IJgwedJLOMhHyzayGzxI,,,,,,,,,,squeal,,,,,,,,,,,,,,,,,,,,,,,,,,,,,,,,,,,,,,,,,right,1.4886,0,5,5,9,1,,,,,,,,,,,,,,
,,,,,,,,,,,M24,man,24,4-6h,2021-12-11_18h10.46.274,bachelor,2021.2.3,Win32,60.29181237,IwAR2Q7jZKIq7PnqEC-VFvwAdnbxakit3fX_VvYV9IJgwedJLOMhHyzayGzxI,,,,,,,,,,bridge,,,,,,,,,,,,,,,,,,,,,,,,,,,,,,,,,,,,,,,,,right,1.4798,0,6,6,14,1,,,,,,,,,,,,,,
,,,,,,,,,,,M24,man,24,4-6h,2021-12-11_18h10.46.274,bachelor,2021.2.3,Win32,60.29181237,IwAR2Q7jZKIq7PnqEC-VFvwAdnbxakit3fX_VvYV9IJgwedJLOMhHyzayGzxI,,,,,,,,,,businessman,,,,,,,,,,,,,,,,,,,,,,,,,,,,,,,,,,,,,,,,,right,4.0546,0,7,7,16,1,,,,,,,,,,,,,,
,,,,,,,,,,,M24,man,24,4-6h,2021-12-11_18h10.46.274,bachelor,2021.2.3,Win32,60.29181237,IwAR2Q7jZKIq7PnqEC-VFvwAdnbxakit3fX_VvYV9IJgwedJLOMhHyzayGzxI,,,,,,,,,,volcano,,,,,,,,,,,,,,,,,,,,,,,,,,,,,,,,,,,,,,,,,right,1.2655,0,8,8,19,1,,,,,,,,,,,,,,
,,,,,,,,,,,M24,man,24,4-6h,2021-12-11_18h10.46.274,bachelor,2021.2.3,Win32,60.29181237,IwAR2Q7jZKIq7PnqEC-VFvwAdnbxakit3fX_VvYV9IJgwedJLOMhHyzayGzxI,,,,,,,,,,farm,,,,,,,,,,,,,,,,,,,,,,,,,,,,,,,,,,,,,,,,,right,3.178,0,9,9,12,1,,,,,,,,,,,,,,
,,,,,,,,,,,M24,man,24,4-6h,2021-12-11_18h10.46.274,bachelor,2021.2.3,Win32,60.29181237,IwAR2Q7jZKIq7PnqEC-VFvwAdnbxakit3fX_VvYV9IJgwedJLOMhHyzayGzxI,,,,,,,,,,diplomat,,,,,,,,,,,,,,,,,,,,,,,,,,,,,,,,,,,,,,,,,left,2.8041,0,10,10,20,1,,,,,,,,,,,,,,
,,,,,,,,,,,M24,man,24,4-6h,2021-12-11_18h10.46.274,bachelor,2021.2.3,Win32,60.29181237,IwAR2Q7jZKIq7PnqEC-VFvwAdnbxakit3fX_VvYV9IJgwedJLOMhHyzayGzxI,,,,,,,,,,rocket,,,,,,,,,,,,,,,,,,,,,,,,,,,,,,,,,,,,,,,,,left,2.2293,0,11,11,15,1,,,,,,,,,,,,,,
,,,,,,,,,,,M24,man,24,4-6h,2021-12-11_18h10.46.274,bachelor,2021.2.3,Win32,60.29181237,IwAR2Q7jZKIq7PnqEC-VFvwAdnbxakit3fX_VvYV9IJgwedJLOMhHyzayGzxI,,,,,,,,,,student,,,,,,,,,,,,,,,,,,,,,,,,,,,,,,,,,,,,,,,,,left,2.2209,0,12,12,18,1,,,,,,,,,,,,,,
,,,,,,,,,,,M24,man,24,4-6h,2021-12-11_18h10.46.274,bachelor,2021.2.3,Win32,60.29181237,IwAR2Q7jZKIq7PnqEC-VFvwAdnbxakit3fX_VvYV9IJgwedJLOMhHyzayGzxI,,,,,,,,,,soft,,,,,,,,,,,,,,,,,,,,,,,,,,,,,,,,,,,,,,,,,left,1.7962,0,13,13,11,1,,,,,,,,,,,,,,
,,,,,,,,,,,M24,man,24,4-6h,2021-12-11_18h10.46.274,bachelor,2021.2.3,Win32,60.29181237,IwAR2Q7jZKIq7PnqEC-VFvwAdnbxakit3fX_VvYV9IJgwedJLOMhHyzayGzxI,,,,,,,,,,football,,,,,,,,,,,,,,,,,,,,,,,,,,,,,,,,,,,,,,,,,right,1.1635,0,14,14,27,1,,,,,,,,,,,,,,
,,,,,,,,,,,M24,man,24,4-6h,2021-12-11_18h10.46.274,bachelor,2021.2.3,Win32,60.29181237,IwAR2Q7jZKIq7PnqEC-VFvwAdnbxakit3fX_VvYV9IJgwedJLOMhHyzayGzxI,,,,,,,,,,jaw,,,,,,,,,,,,,,,,,,,,,,,,,,,,,,,,,,,,,,,,,right,2.0575,0,15,15,0,1,,,,,,,,,,,,,,
,,,,,,,,,,,M24,man,24,4-6h,2021-12-11_18h10.46.274,bachelor,2021.2.3,Win32,60.29181237,IwAR2Q7jZKIq7PnqEC-VFvwAdnbxakit3fX_VvYV9IJgwedJLOMhHyzayGzxI,,,,,,,,,,mouth,,,,,,,,,,,,,,,,,,,,,,,,,,,,,,,,,,,,,,,,,left,1.2919,0,16,16,24,1,,,,,,,,,,,,,,
,,,,,,,,,,,M24,man,24,4-6h,2021-12-11_18h10.46.274,bachelor,2021.2.3,Win32,60.29181237,IwAR2Q7jZKIq7PnqEC-VFvwAdnbxakit3fX_VvYV9IJgwedJLOMhHyzayGzxI,,,,,,,,,,leg,,,,,,,,,,,,,,,,,,,,,,,,,,,,,,,,,,,,,,,,,right,1.24,0,17,17,2,1,,,,,,,,,,,,,,
,,,,,,,,,,,M24,man,24,4-6h,2021-12-11_18h10.46.274,bachelor,2021.2.3,Win32,60.29181237,IwAR2Q7jZKIq7PnqEC-VFvwAdnbxakit3fX_VvYV9IJgwedJLOMhHyzayGzxI,,,,,,,,,,stole,,,,,,,,,,,,,,,,,,,,,,,,,,,,,,,,,,,,,,,,,right,1.3713,0,18,18,3,1,,,,,,,,,,,,,,
,,,,,,,,,,,M24,man,24,4-6h,2021-12-11_18h10.46.274,bachelor,2021.2.3,Win32,60.29181237,IwAR2Q7jZKIq7PnqEC-VFvwAdnbxakit3fX_VvYV9IJgwedJLOMhHyzayGzxI,,,,,,,,,,clang,,,,,,,,,,,,,,,,,,,,,,,,,,,,,,,,,,,,,,,,,right,4.2531,0,19,19,13,1,,,,,,,,,,,,,,
,,,,,,,,,,,M24,man,24,4-6h,2021-12-11_18h10.46.274,bachelor,2021.2.3,Win32,60.29181237,IwAR2Q7jZKIq7PnqEC-VFvwAdnbxakit3fX_VvYV9IJgwedJLOMhHyzayGzxI,,,,,,,,,,thunder,,,,,,,,,,,,,,,,,,,,,,,,,,,,,,,,,,,,,,,,,right,0.9663,0,20,20,21,1,,,,,,,,,,,,,,
,,,,,,,,,,,M24,man,24,4-6h,2021-12-11_18h10.46.274,bachelor,2021.2.3,Win32,60.29181237,IwAR2Q7jZKIq7PnqEC-VFvwAdnbxakit3fX_VvYV9IJgwedJLOMhHyzayGzxI,,,,,,,,,,handshake,,,,,,,,,,,,,,,,,,,,,,,,,,,,,,,,,,,,,,,,,left,5.6949,0,21,21,1,1,,,,,,,,,,,,,,
,,,,,,,,,,,M24,man,24,4-6h,2021-12-11_18h10.46.274,bachelor,2021.2.3,Win32,60.29181237,IwAR2Q7jZKIq7PnqEC-VFvwAdnbxakit3fX_VvYV9IJgwedJLOMhHyzayGzxI,,,,,,,,,,actor,,,,,,,,,,,,,,,,,,,,,,,,,,,,,,,,,,,,,,,,,left,1.2445,0,22,22,23,1,,,,,,,,,,,,,,
,,,,,,,,,,,M24,man,24,4-6h,2021-12-11_18h10.46.274,bachelor,2021.2.3,Win32,60.29181237,IwAR2Q7jZKIq7PnqEC-VFvwAdnbxakit3fX_VvYV9IJgwedJLOMhHyzayGzxI,,,,,,,,,,sled,,,,,,,,,,,,,,,,,,,,,,,,,,,,,,,,,,,,,,,,,right,1.9662,0,23,23,5,1,,,,,,,,,,,,,,
,,,,,,,,,,,M24,man,24,4-6h,2021-12-11_18h10.46.274,bachelor,2021.2.3,Win32,60.29181237,IwAR2Q7jZKIq7PnqEC-VFvwAdnbxakit3fX_VvYV9IJgwedJLOMhHyzayGzxI,,,,,,,,,,delirium,,,,,,,,,,,,,,,,,,,,,,,,,,,,,,,,,,,,,,,,,left,1.9338,0,24,24,7,1,,,,,,,,,,,,,,
,,,,,,,,,,,M24,man,24,4-6h,2021-12-11_18h10.46.274,bachelor,2021.2.3,Win32,60.29181237,IwAR2Q7jZKIq7PnqEC-VFvwAdnbxakit3fX_VvYV9IJgwedJLOMhHyzayGzxI,,,,,,,,,,truck,,,,,,,,,,,,,,,,,,,,,,,,,,,,,,,,,,,,,,,,,right,3.879,0,25,25,17,1,,,,,,,,,,,,,,
,,,,,,,,,,,M24,man,24,4-6h,2021-12-11_18h10.46.274,bachelor,2021.2.3,Win32,60.29181237,IwAR2Q7jZKIq7PnqEC-VFvwAdnbxakit3fX_VvYV9IJgwedJLOMhHyzayGzxI,,,,,,,,,,school,,,,,,,,,,,,,,,,,,,,,,,,,,,,,,,,,,,,,,,,,left,1.0337,0,26,26,10,1,,,,,,,,,,,,,,
,,,,,,,,,,,M24,man,24,4-6h,2021-12-11_18h10.46.274,bachelor,2021.2.3,Win32,60.29181237,IwAR2Q7jZKIq7PnqEC-VFvwAdnbxakit3fX_VvYV9IJgwedJLOMhHyzayGzxI,,,,,,,,,,nose,,,,,,,,,,,,,,,,,,,,,,,,,,,,,,,,,,,,,,,,,left,1.6392,0,27,27,26,1,,,,,,,,,,,,,,
,,,,,,,,,,,M24,man,24,4-6h,2021-12-11_18h10.46.274,bachelor,2021.2.3,Win32,60.29181237,IwAR2Q7jZKIq7PnqEC-VFvwAdnbxakit3fX_VvYV9IJgwedJLOMhHyzayGzxI,,,,,,,,,,,,,,,,,,,,,,,,,,,,,,,,,,,,,,,,,,,,,,,,,,,,,,,,,,space,7.2324,7,11.3077,0,0,0,1,1,Negative feedback showed me that I had lower task competencies than the other participants.,,,,
,,,,,,,,,,,M24,man,24,4-6h,2021-12-11_18h10.46.274,bachelor,2021.2.3,Win32,60.29181237,IwAR2Q7jZKIq7PnqEC-VFvwAdnbxakit3fX_VvYV9IJgwedJLOMhHyzayGzxI,,,,,,,,,,,,,,,,,,,,,,,,,,,,,,,,,,,,,,,,,,,,,,,,,,,,,,,,,,,,6,4.9166,0,1,1,2,1,I felt alone during the experiment.,,,,
,,,,,,,,,,,M24,man,24,4-6h,2021-12-11_18h10.46.274,bachelor,2021.2.3,Win32,60.29181237,IwAR2Q7jZKIq7PnqEC-VFvwAdnbxakit3fX_VvYV9IJgwedJLOMhHyzayGzxI,,,,,,,,,,,,,,,,,,,,,,,,,,,,,,,,,,,,,,,,,,,,,,,,,,,,,,,,,,,,7,2.1247,0,2,2,3,1,I felt stressed during the experiment.,,,,
,,,,,,,,,,,M24,man,24,4-6h,2021-12-11_18h10.46.274,bachelor,2021.2.3,Win32,60.29181237,IwAR2Q7jZKIq7PnqEC-VFvwAdnbxakit3fX_VvYV9IJgwedJLOMhHyzayGzxI,,,,,,,,,,,,,,,,,,,,,,,,,,,,,,,,,,,,,,,,,,,,,,,,,,,,,,,,,,,,5,4.0737,0,3,3,0,1,I felt excluded during the experiment.,,,,
,,,,,,,,,,,M24,man,24,4-6h,2021-12-11_18h10.46.274,bachelor,2021.2.3,Win32,60.29181237,IwAR2Q7jZKIq7PnqEC-VFvwAdnbxakit3fX_VvYV9IJgwedJLOMhHyzayGzxI,,,,,,,,,,,,,,,,,,,,,,,,,,,,,,,,,,,,,,,,,,,,,,,,,,,,,,,,,,,,,,,,,,,,space,15.3379,space,6.9257
