key_resp_17.keys,key_resp_17.rt,key_resp_13.keys,key_resp_13.rt,trials_5.thisRepN,trials_5.thisTrialN,trials_5.thisN,trials_5.thisIndex,trials_5.ran,Text,Condition,participant,Gender*,Age*,Estimated hours since last sleep*,date,expName,psychopyVersion,OS,frameRate,fbclid,key_resp_2.keys,key_resp_2.rt,key_resp_11.keys,key_resp_11.rt,trials_6.thisRepN,trials_6.thisTrialN,trials_6.thisN,trials_6.thisIndex,trials_6.ran,Word,key_resp_3.keys,key_resp_3.rt,key_resp_9.keys,key_resp_9.rt,trials_2.thisRepN,trials_2.thisTrialN,trials_2.thisN,trials_2.thisIndex,trials_2.ran,Stimuli,keyrespp.keys,keyrespp.rt,key_resp_4.keys,key_resp_4.rt,trials.thisRepN,trials.thisTrialN,trials.thisN,trials.thisIndex,trials.ran,Response,Congr,RightAns,key_resp_8.keys,key_resp_8.rt,key_resp_10.keys,key_resp_10.rt,trials_4.thisRepN,trials_4.thisTrialN,trials_4.thisN,trials_4.thisIndex,trials_4.ran,key_resp_14.keys,key_resp_14.rt,trials_7.thisRepN,trials_7.thisTrialN,trials_7.thisN,trials_7.thisIndex,trials_7.ran,key_resp_5.keys,key_resp_5.rt,key_resp_12.keys,key_resp_12.rt,trials_3.thisRepN,trials_3.thisTrialN,trials_3.thisN,trials_3.thisIndex,trials_3.ran,key_resp_6.keys,key_resp_6.rt,key_resp_15.keys,key_resp_15.rt,socialexc.thisRepN,socialexc.thisTrialN,socialexc.thisN,socialexc.thisIndex,socialexc.ran,Question,key_resp_7.keys,key_resp_7.rt,key_resp_16.keys,key_resp_16.rt
y,17.377,space,3.457,0,0,0,0,1,"
Please complete all tasks. It will take no more than 5-10 minutes.

Press any key to start the experiment",0,736,woman,21,13-15h,2021-12-01_20h47.58.802,bachelor,2021.2.3,MacIntel,71.42857143,IwAR0fIy4rXJbTyGk1qvhlqIHko2JwZHUIjMwkfZhFNfNAb7iLftWId5prvy8,,,,,,,,,,,,,,,,,,,,,,,,,,,,,,,,,,,,,,,,,,,,,,,,,,,,,,,,,,,,,,,,,,,,,,,
,,,,,,,,,,,736,woman,21,13-15h,2021-12-01_20h47.58.802,bachelor,2021.2.3,MacIntel,71.42857143,IwAR0fIy4rXJbTyGk1qvhlqIHko2JwZHUIjMwkfZhFNfNAb7iLftWId5prvy8,space,22.993,left,1.586,0,0,0,10,1,church,,,,,,,,,,,,,,,,,,,,,,,,,,,,,,,,,,,,,,,,,,,,,,,,,,,,,,,,,,,,,
,,,,,,,,,,,736,woman,21,13-15h,2021-12-01_20h47.58.802,bachelor,2021.2.3,MacIntel,71.42857143,IwAR0fIy4rXJbTyGk1qvhlqIHko2JwZHUIjMwkfZhFNfNAb7iLftWId5prvy8,,,right,2.703,0,1,1,8,1,college,,,,,,,,,,,,,,,,,,,,,,,,,,,,,,,,,,,,,,,,,,,,,,,,,,,,,,,,,,,,,
,,,,,,,,,,,736,woman,21,13-15h,2021-12-01_20h47.58.802,bachelor,2021.2.3,MacIntel,71.42857143,IwAR0fIy4rXJbTyGk1qvhlqIHko2JwZHUIjMwkfZhFNfNAb7iLftWId5prvy8,,,left,1.657,0,2,2,12,1,forest,,,,,,,,,,,,,,,,,,,,,,,,,,,,,,,,,,,,,,,,,,,,,,,,,,,,,,,,,,,,,
,,,,,,,,,,,736,woman,21,13-15h,2021-12-01_20h47.58.802,bachelor,2021.2.3,MacIntel,71.42857143,IwAR0fIy4rXJbTyGk1qvhlqIHko2JwZHUIjMwkfZhFNfNAb7iLftWId5prvy8,,,right,1.362,0,3,3,18,1,screech,,,,,,,,,,,,,,,,,,,,,,,,,,,,,,,,,,,,,,,,,,,,,,,,,,,,,,,,,,,,,
,,,,,,,,,,,736,woman,21,13-15h,2021-12-01_20h47.58.802,bachelor,2021.2.3,MacIntel,71.42857143,IwAR0fIy4rXJbTyGk1qvhlqIHko2JwZHUIjMwkfZhFNfNAb7iLftWId5prvy8,,,left,1.247,0,4,4,2,1,home,,,,,,,,,,,,,,,,,,,,,,,,,,,,,,,,,,,,,,,,,,,,,,,,,,,,,,,,,,,,,
,,,,,,,,,,,736,woman,21,13-15h,2021-12-01_20h47.58.802,bachelor,2021.2.3,MacIntel,71.42857143,IwAR0fIy4rXJbTyGk1qvhlqIHko2JwZHUIjMwkfZhFNfNAb7iLftWId5prvy8,,,left,2.752,0,5,5,22,1,woman,,,,,,,,,,,,,,,,,,,,,,,,,,,,,,,,,,,,,,,,,,,,,,,,,,,,,,,,,,,,,
,,,,,,,,,,,736,woman,21,13-15h,2021-12-01_20h47.58.802,bachelor,2021.2.3,MacIntel,71.42857143,IwAR0fIy4rXJbTyGk1qvhlqIHko2JwZHUIjMwkfZhFNfNAb7iLftWId5prvy8,,,right,4.658,0,6,6,11,1,gasp,,,,,,,,,,,,,,,,,,,,,,,,,,,,,,,,,,,,,,,,,,,,,,,,,,,,,,,,,,,,,
,,,,,,,,,,,736,woman,21,13-15h,2021-12-01_20h47.58.802,bachelor,2021.2.3,MacIntel,71.42857143,IwAR0fIy4rXJbTyGk1qvhlqIHko2JwZHUIjMwkfZhFNfNAb7iLftWId5prvy8,,,left,1.285,0,7,7,17,1,scientist,,,,,,,,,,,,,,,,,,,,,,,,,,,,,,,,,,,,,,,,,,,,,,,,,,,,,,,,,,,,,
,,,,,,,,,,,736,woman,21,13-15h,2021-12-01_20h47.58.802,bachelor,2021.2.3,MacIntel,71.42857143,IwAR0fIy4rXJbTyGk1qvhlqIHko2JwZHUIjMwkfZhFNfNAb7iLftWId5prvy8,,,left,1.876,0,8,8,19,1,wonder,,,,,,,,,,,,,,,,,,,,,,,,,,,,,,,,,,,,,,,,,,,,,,,,,,,,,,,,,,,,,
,,,,,,,,,,,736,woman,21,13-15h,2021-12-01_20h47.58.802,bachelor,2021.2.3,MacIntel,71.42857143,IwAR0fIy4rXJbTyGk1qvhlqIHko2JwZHUIjMwkfZhFNfNAb7iLftWId5prvy8,,,right,1.284,0,9,9,6,1,airport,,,,,,,,,,,,,,,,,,,,,,,,,,,,,,,,,,,,,,,,,,,,,,,,,,,,,,,,,,,,,
,,,,,,,,,,,736,woman,21,13-15h,2021-12-01_20h47.58.802,bachelor,2021.2.3,MacIntel,71.42857143,IwAR0fIy4rXJbTyGk1qvhlqIHko2JwZHUIjMwkfZhFNfNAb7iLftWId5prvy8,,,left,1.195,0,10,10,9,1,hot,,,,,,,,,,,,,,,,,,,,,,,,,,,,,,,,,,,,,,,,,,,,,,,,,,,,,,,,,,,,,
,,,,,,,,,,,736,woman,21,13-15h,2021-12-01_20h47.58.802,bachelor,2021.2.3,MacIntel,71.42857143,IwAR0fIy4rXJbTyGk1qvhlqIHko2JwZHUIjMwkfZhFNfNAb7iLftWId5prvy8,,,right,1.258,0,11,11,16,1,gunshot,,,,,,,,,,,,,,,,,,,,,,,,,,,,,,,,,,,,,,,,,,,,,,,,,,,,,,,,,,,,,
,,,,,,,,,,,736,woman,21,13-15h,2021-12-01_20h47.58.802,bachelor,2021.2.3,MacIntel,71.42857143,IwAR0fIy4rXJbTyGk1qvhlqIHko2JwZHUIjMwkfZhFNfNAb7iLftWId5prvy8,,,left,1.294,0,12,12,21,1,ambulance,,,,,,,,,,,,,,,,,,,,,,,,,,,,,,,,,,,,,,,,,,,,,,,,,,,,,,,,,,,,,
,,,,,,,,,,,736,woman,21,13-15h,2021-12-01_20h47.58.802,bachelor,2021.2.3,MacIntel,71.42857143,IwAR0fIy4rXJbTyGk1qvhlqIHko2JwZHUIjMwkfZhFNfNAb7iLftWId5prvy8,,,left,1.342,0,13,13,3,1,foot,,,,,,,,,,,,,,,,,,,,,,,,,,,,,,,,,,,,,,,,,,,,,,,,,,,,,,,,,,,,,
,,,,,,,,,,,736,woman,21,13-15h,2021-12-01_20h47.58.802,bachelor,2021.2.3,MacIntel,71.42857143,IwAR0fIy4rXJbTyGk1qvhlqIHko2JwZHUIjMwkfZhFNfNAb7iLftWId5prvy8,,,left,0.903,0,14,14,26,1,eye,,,,,,,,,,,,,,,,,,,,,,,,,,,,,,,,,,,,,,,,,,,,,,,,,,,,,,,,,,,,,
,,,,,,,,,,,736,woman,21,13-15h,2021-12-01_20h47.58.802,bachelor,2021.2.3,MacIntel,71.42857143,IwAR0fIy4rXJbTyGk1qvhlqIHko2JwZHUIjMwkfZhFNfNAb7iLftWId5prvy8,,,right,1.434,0,15,15,5,1,cold,,,,,,,,,,,,,,,,,,,,,,,,,,,,,,,,,,,,,,,,,,,,,,,,,,,,,,,,,,,,,
,,,,,,,,,,,736,woman,21,13-15h,2021-12-01_20h47.58.802,bachelor,2021.2.3,MacIntel,71.42857143,IwAR0fIy4rXJbTyGk1qvhlqIHko2JwZHUIjMwkfZhFNfNAb7iLftWId5prvy8,,,left,1.791,0,16,16,25,1,soccer,,,,,,,,,,,,,,,,,,,,,,,,,,,,,,,,,,,,,,,,,,,,,,,,,,,,,,,,,,,,,
,,,,,,,,,,,736,woman,21,13-15h,2021-12-01_20h47.58.802,bachelor,2021.2.3,MacIntel,71.42857143,IwAR0fIy4rXJbTyGk1qvhlqIHko2JwZHUIjMwkfZhFNfNAb7iLftWId5prvy8,,,left,2.545,0,17,17,7,1,cough,,,,,,,,,,,,,,,,,,,,,,,,,,,,,,,,,,,,,,,,,,,,,,,,,,,,,,,,,,,,,
,,,,,,,,,,,736,woman,21,13-15h,2021-12-01_20h47.58.802,bachelor,2021.2.3,MacIntel,71.42857143,IwAR0fIy4rXJbTyGk1qvhlqIHko2JwZHUIjMwkfZhFNfNAb7iLftWId5prvy8,,,right,1.679,0,18,18,20,1,journalist,,,,,,,,,,,,,,,,,,,,,,,,,,,,,,,,,,,,,,,,,,,,,,,,,,,,,,,,,,,,,
,,,,,,,,,,,736,woman,21,13-15h,2021-12-01_20h47.58.802,bachelor,2021.2.3,MacIntel,71.42857143,IwAR0fIy4rXJbTyGk1qvhlqIHko2JwZHUIjMwkfZhFNfNAb7iLftWId5prvy8,,,right,2.179,0,19,19,27,1,applause,,,,,,,,,,,,,,,,,,,,,,,,,,,,,,,,,,,,,,,,,,,,,,,,,,,,,,,,,,,,,
,,,,,,,,,,,736,woman,21,13-15h,2021-12-01_20h47.58.802,bachelor,2021.2.3,MacIntel,71.42857143,IwAR0fIy4rXJbTyGk1qvhlqIHko2JwZHUIjMwkfZhFNfNAb7iLftWId5prvy8,,,left,1.562,0,20,20,24,1,lip,,,,,,,,,,,,,,,,,,,,,,,,,,,,,,,,,,,,,,,,,,,,,,,,,,,,,,,,,,,,,
,,,,,,,,,,,736,woman,21,13-15h,2021-12-01_20h47.58.802,bachelor,2021.2.3,MacIntel,71.42857143,IwAR0fIy4rXJbTyGk1qvhlqIHko2JwZHUIjMwkfZhFNfNAb7iLftWId5prvy8,,,right,1.263,0,21,21,13,1,belch,,,,,,,,,,,,,,,,,,,,,,,,,,,,,,,,,,,,,,,,,,,,,,,,,,,,,,,,,,,,,
,,,,,,,,,,,736,woman,21,13-15h,2021-12-01_20h47.58.802,bachelor,2021.2.3,MacIntel,71.42857143,IwAR0fIy4rXJbTyGk1qvhlqIHko2JwZHUIjMwkfZhFNfNAb7iLftWId5prvy8,,,right,1.428,0,22,22,4,1,hospital,,,,,,,,,,,,,,,,,,,,,,,,,,,,,,,,,,,,,,,,,,,,,,,,,,,,,,,,,,,,,
,,,,,,,,,,,736,woman,21,13-15h,2021-12-01_20h47.58.802,bachelor,2021.2.3,MacIntel,71.42857143,IwAR0fIy4rXJbTyGk1qvhlqIHko2JwZHUIjMwkfZhFNfNAb7iLftWId5prvy8,,,right,1.312,0,23,23,23,1,fee,,,,,,,,,,,,,,,,,,,,,,,,,,,,,,,,,,,,,,,,,,,,,,,,,,,,,,,,,,,,,
,,,,,,,,,,,736,woman,21,13-15h,2021-12-01_20h47.58.802,bachelor,2021.2.3,MacIntel,71.42857143,IwAR0fIy4rXJbTyGk1qvhlqIHko2JwZHUIjMwkfZhFNfNAb7iLftWId5prvy8,,,right,1.324,0,24,24,14,1,tourist,,,,,,,,,,,,,,,,,,,,,,,,,,,,,,,,,,,,,,,,,,,,,,,,,,,,,,,,,,,,,
,,,,,,,,,,,736,woman,21,13-15h,2021-12-01_20h47.58.802,bachelor,2021.2.3,MacIntel,71.42857143,IwAR0fIy4rXJbTyGk1qvhlqIHko2JwZHUIjMwkfZhFNfNAb7iLftWId5prvy8,,,right,1.541,0,25,25,1,1,ricochet,,,,,,,,,,,,,,,,,,,,,,,,,,,,,,,,,,,,,,,,,,,,,,,,,,,,,,,,,,,,,
,,,,,,,,,,,736,woman,21,13-15h,2021-12-01_20h47.58.802,bachelor,2021.2.3,MacIntel,71.42857143,IwAR0fIy4rXJbTyGk1qvhlqIHko2JwZHUIjMwkfZhFNfNAb7iLftWId5prvy8,,,right,3.648,0,26,26,0,1,drank,,,,,,,,,,,,,,,,,,,,,,,,,,,,,,,,,,,,,,,,,,,,,,,,,,,,,,,,,,,,,
,,,,,,,,,,,736,woman,21,13-15h,2021-12-01_20h47.58.802,bachelor,2021.2.3,MacIntel,71.42857143,IwAR0fIy4rXJbTyGk1qvhlqIHko2JwZHUIjMwkfZhFNfNAb7iLftWId5prvy8,,,left,1.19,0,27,27,15,1,minister,,,,,,,,,,,,,,,,,,,,,,,,,,,,,,,,,,,,,,,,,,,,,,,,,,,,,,,,,,,,,
,,,,,,,,,,,736,woman,21,13-15h,2021-12-01_20h47.58.802,bachelor,2021.2.3,MacIntel,71.42857143,IwAR0fIy4rXJbTyGk1qvhlqIHko2JwZHUIjMwkfZhFNfNAb7iLftWId5prvy8,,,,,,,,,,,space,16.87,right,4.91,0,0,0,1,1,10 - 18 + 1 = -9?,,,,,,,,,,,,,,,,,,,,,,,,,,,,,,,,,,,,,,,,,,,,,,,,,,,
,,,,,,,,,,,736,woman,21,13-15h,2021-12-01_20h47.58.802,bachelor,2021.2.3,MacIntel,71.42857143,IwAR0fIy4rXJbTyGk1qvhlqIHko2JwZHUIjMwkfZhFNfNAb7iLftWId5prvy8,,,,,,,,,,,,,right,3.989,0,1,1,2,1,10 - 5 - 16 = 21?,,,,,,,,,,,,,,,,,,,,,,,,,,,,,,,,,,,,,,,,,,,,,,,,,,,
,,,,,,,,,,,736,woman,21,13-15h,2021-12-01_20h47.58.802,bachelor,2021.2.3,MacIntel,71.42857143,IwAR0fIy4rXJbTyGk1qvhlqIHko2JwZHUIjMwkfZhFNfNAb7iLftWId5prvy8,,,,,,,,,,,,,right,2.046,0,2,2,0,1,5 x 5 - 10 = 22?,,,,,,,,,,,,,,,,,,,,,,,,,,,,,,,,,,,,,,,,,,,,,,,,,,,
,,,,,,,,,,,736,woman,21,13-15h,2021-12-01_20h47.58.802,bachelor,2021.2.3,MacIntel,71.42857143,IwAR0fIy4rXJbTyGk1qvhlqIHko2JwZHUIjMwkfZhFNfNAb7iLftWId5prvy8,,,,,,,,,,,,,right,3.792,0,3,3,3,1,2 + 20 x 4 = 82?,,,,,,,,,,,,,,,,,,,,,,,,,,,,,,,,,,,,,,,,,,,,,,,,,,,
,,,,,,,,,,,736,woman,21,13-15h,2021-12-01_20h47.58.802,bachelor,2021.2.3,MacIntel,71.42857143,IwAR0fIy4rXJbTyGk1qvhlqIHko2JwZHUIjMwkfZhFNfNAb7iLftWId5prvy8,,,,,,,,,,,,,,,0,4,4,4,1,11 + 3 - 7 = 8?,,,,,,,,,,,,,,,,,,,,,,,,,,,,,,,,,,,,,,,,,,,,,,,,,,,
,,,,,,,,,,,736,woman,21,13-15h,2021-12-01_20h47.58.802,bachelor,2021.2.3,MacIntel,71.42857143,IwAR0fIy4rXJbTyGk1qvhlqIHko2JwZHUIjMwkfZhFNfNAb7iLftWId5prvy8,,,,,,,,,,,,,,,,,,,,2 - 15 + 39 = 27?,space,9.752,right,3.748,0,0,0,0,1,RESPONSE RECORDED,0,right,,,,,,,,,,,,,,,,,,,,,,,,,,,,,,,,,,,,,,,
,,,,,,,,,,,736,woman,21,13-15h,2021-12-01_20h47.58.802,bachelor,2021.2.3,MacIntel,71.42857143,IwAR0fIy4rXJbTyGk1qvhlqIHko2JwZHUIjMwkfZhFNfNAb7iLftWId5prvy8,,,,,,,,,,,,,,,,,,,,47 + 13 - 7 = 53?,,,left,2.376,0,1,1,11,1,RESPONSE RECORDED,1,left,,,,,,,,,,,,,,,,,,,,,,,,,,,,,,,,,,,,,,,
,,,,,,,,,,,736,woman,21,13-15h,2021-12-01_20h47.58.802,bachelor,2021.2.3,MacIntel,71.42857143,IwAR0fIy4rXJbTyGk1qvhlqIHko2JwZHUIjMwkfZhFNfNAb7iLftWId5prvy8,,,,,,,,,,,,,,,,,,,,53 + 13 x 7 = -150?,,,right,4.904,0,2,2,12,1,YOU’RE NOT TRYING HARD ENOUGH,0,right,,,,,,,,,,,,,,,,,,,,,,,,,,,,,,,,,,,,,,,
,,,,,,,,,,,736,woman,21,13-15h,2021-12-01_20h47.58.802,bachelor,2021.2.3,MacIntel,71.42857143,IwAR0fIy4rXJbTyGk1qvhlqIHko2JwZHUIjMwkfZhFNfNAb7iLftWId5prvy8,,,,,,,,,,,,,,,,,,,,54 - 40 x -2 = - 27?,,,right,2.84,0,3,3,8,1,RESPONSE RECORDED,0,right,,,,,,,,,,,,,,,,,,,,,,,,,,,,,,,,,,,,,,,
,,,,,,,,,,,736,woman,21,13-15h,2021-12-01_20h47.58.802,bachelor,2021.2.3,MacIntel,71.42857143,IwAR0fIy4rXJbTyGk1qvhlqIHko2JwZHUIjMwkfZhFNfNAb7iLftWId5prvy8,,,,,,,,,,,,,,,,,,,,14 x 2 - 3 = 25?,,,left,2.171,0,4,4,13,1,TRY HARDER,1,left,,,,,,,,,,,,,,,,,,,,,,,,,,,,,,,,,,,,,,,
,,,,,,,,,,,736,woman,21,13-15h,2021-12-01_20h47.58.802,bachelor,2021.2.3,MacIntel,71.42857143,IwAR0fIy4rXJbTyGk1qvhlqIHko2JwZHUIjMwkfZhFNfNAb7iLftWId5prvy8,,,,,,,,,,,,,,,,,,,,5 x 5 - 29 = -40?,,,right,2.056,0,5,5,7,1,SPEED UP,0,right,,,,,,,,,,,,,,,,,,,,,,,,,,,,,,,,,,,,,,,
,,,,,,,,,,,736,woman,21,13-15h,2021-12-01_20h47.58.802,bachelor,2021.2.3,MacIntel,71.42857143,IwAR0fIy4rXJbTyGk1qvhlqIHko2JwZHUIjMwkfZhFNfNAb7iLftWId5prvy8,,,,,,,,,,,,,,,,,,,,7 x 11 - 21 = 56?,,,left,3.521,0,6,6,9,1,SPEED UP,1,left,,,,,,,,,,,,,,,,,,,,,,,,,,,,,,,,,,,,,,,
,,,,,,,,,,,736,woman,21,13-15h,2021-12-01_20h47.58.802,bachelor,2021.2.3,MacIntel,71.42857143,IwAR0fIy4rXJbTyGk1qvhlqIHko2JwZHUIjMwkfZhFNfNAb7iLftWId5prvy8,,,,,,,,,,,,,,,,,,,,14 x 2 + 10 = 38?,,,left,2.058,0,7,7,4,1,CONCENTRATE,1,left,,,,,,,,,,,,,,,,,,,,,,,,,,,,,,,,,,,,,,,
,,,,,,,,,,,736,woman,21,13-15h,2021-12-01_20h47.58.802,bachelor,2021.2.3,MacIntel,71.42857143,IwAR0fIy4rXJbTyGk1qvhlqIHko2JwZHUIjMwkfZhFNfNAb7iLftWId5prvy8,,,,,,,,,,,,,,,,,,,,2 x 40 + 3 = 84?,,,right,2.039,0,8,8,6,1,RESPONSE RECORDED,0,right,,,,,,,,,,,,,,,,,,,,,,,,,,,,,,,,,,,,,,,
,,,,,,,,,,,736,woman,21,13-15h,2021-12-01_20h47.58.802,bachelor,2021.2.3,MacIntel,71.42857143,IwAR0fIy4rXJbTyGk1qvhlqIHko2JwZHUIjMwkfZhFNfNAb7iLftWId5prvy8,,,,,,,,,,,,,,,,,,,,35 - 65 - 20 = - 55?,,,left,3.926,0,9,9,10,1,RESPONSE RECORDED,0,right,,,,,,,,,,,,,,,,,,,,,,,,,,,,,,,,,,,,,,,
,,,,,,,,,,,736,woman,21,13-15h,2021-12-01_20h47.58.802,bachelor,2021.2.3,MacIntel,71.42857143,IwAR0fIy4rXJbTyGk1qvhlqIHko2JwZHUIjMwkfZhFNfNAb7iLftWId5prvy8,,,,,,,,,,,,,,,,,,,,50 x 3 + 12 = 147?,,,right,3.476,0,10,10,1,1,SPEED UP,1,left,,,,,,,,,,,,,,,,,,,,,,,,,,,,,,,,,,,,,,,
,,,,,,,,,,,736,woman,21,13-15h,2021-12-01_20h47.58.802,bachelor,2021.2.3,MacIntel,71.42857143,IwAR0fIy4rXJbTyGk1qvhlqIHko2JwZHUIjMwkfZhFNfNAb7iLftWId5prvy8,,,,,,,,,,,,,,,,,,,,54 + 60 - 1 = 113?,,,left,3.061,0,11,11,5,1,PAY ATTENTION,1,left,,,,,,,,,,,,,,,,,,,,,,,,,,,,,,,,,,,,,,,
,,,,,,,,,,,736,woman,21,13-15h,2021-12-01_20h47.58.802,bachelor,2021.2.3,MacIntel,71.42857143,IwAR0fIy4rXJbTyGk1qvhlqIHko2JwZHUIjMwkfZhFNfNAb7iLftWId5prvy8,,,,,,,,,,,,,,,,,,,,6 - 58 + 11 = -41?,,,,,0,12,12,3,1,RESPONSE RECORDED,1,left,,,,,,,,,,,,,,,,,,,,,,,,,,,,,,,,,,,,,,,
,,,,,,,,,,,736,woman,21,13-15h,2021-12-01_20h47.58.802,bachelor,2021.2.3,MacIntel,71.42857143,IwAR0fIy4rXJbTyGk1qvhlqIHko2JwZHUIjMwkfZhFNfNAb7iLftWId5prvy8,,,,,,,,,,,,,,,,,,,,72 + 17 x 3 = 121?,,,right,3.155,0,13,13,2,1,RESPONSE RECORDED,0,right,,,,,,,,,,,,,,,,,,,,,,,,,,,,,,,,,,,,,,,
,,,,,,,,,,,736,woman,21,13-15h,2021-12-01_20h47.58.802,bachelor,2021.2.3,MacIntel,71.42857143,IwAR0fIy4rXJbTyGk1qvhlqIHko2JwZHUIjMwkfZhFNfNAb7iLftWId5prvy8,,,,,,,,,,,,,,,,,,,,62 - 15 x 3 = 5?,,,,,,,,,,PAY ATTENTION,0,right,space,12.637,right,2.594,0,0,0,8,1,,,,,,,,,,,,,,,,,,,,,,,,,,,,,,
,,,,,,,,,,,736,woman,21,13-15h,2021-12-01_20h47.58.802,bachelor,2021.2.3,MacIntel,71.42857143,IwAR0fIy4rXJbTyGk1qvhlqIHko2JwZHUIjMwkfZhFNfNAb7iLftWId5prvy8,,,,,,,,,,,,,,,,,,,,2 x 40 + 10 = 800?,,,,,,,,,,RESPONSE RECORDED,0,right,,,right,1.866,0,1,1,2,1,,,,,,,,,,,,,,,,,,,,,,,,,,,,,,
,,,,,,,,,,,736,woman,21,13-15h,2021-12-01_20h47.58.802,bachelor,2021.2.3,MacIntel,71.42857143,IwAR0fIy4rXJbTyGk1qvhlqIHko2JwZHUIjMwkfZhFNfNAb7iLftWId5prvy8,,,,,,,,,,,,,,,,,,,,7 - 8 - 9 = -11?,,,,,,,,,,SPEED UP,0,right,,,right,2.4,0,2,2,7,1,,,,,,,,,,,,,,,,,,,,,,,,,,,,,,
,,,,,,,,,,,736,woman,21,13-15h,2021-12-01_20h47.58.802,bachelor,2021.2.3,MacIntel,71.42857143,IwAR0fIy4rXJbTyGk1qvhlqIHko2JwZHUIjMwkfZhFNfNAb7iLftWId5prvy8,,,,,,,,,,,,,,,,,,,,55 - 66 + 14 = 3?,,,,,,,,,,RESPONSE RECORDED,1,left,,,left,3.641,0,3,3,13,1,,,,,,,,,,,,,,,,,,,,,,,,,,,,,,
,,,,,,,,,,,736,woman,21,13-15h,2021-12-01_20h47.58.802,bachelor,2021.2.3,MacIntel,71.42857143,IwAR0fIy4rXJbTyGk1qvhlqIHko2JwZHUIjMwkfZhFNfNAb7iLftWId5prvy8,,,,,,,,,,,,,,,,,,,,12 + 10 x 4 = 70?,,,,,,,,,,RESPONSE RECORDED,0,right,,,right,2.876,0,4,4,6,1,,,,,,,,,,,,,,,,,,,,,,,,,,,,,,
,,,,,,,,,,,736,woman,21,13-15h,2021-12-01_20h47.58.802,bachelor,2021.2.3,MacIntel,71.42857143,IwAR0fIy4rXJbTyGk1qvhlqIHko2JwZHUIjMwkfZhFNfNAb7iLftWId5prvy8,,,,,,,,,,,,,,,,,,,,17 x 2 - 10 = 24?,,,,,,,,,,RESPONSE RECORDED,1,left,,,left,2.54,0,5,5,0,1,,,,,,,,,,,,,,,,,,,,,,,,,,,,,,
,,,,,,,,,,,736,woman,21,13-15h,2021-12-01_20h47.58.802,bachelor,2021.2.3,MacIntel,71.42857143,IwAR0fIy4rXJbTyGk1qvhlqIHko2JwZHUIjMwkfZhFNfNAb7iLftWId5prvy8,,,,,,,,,,,,,,,,,,,,33 - 15 - 49 = -40?,,,,,,,,,,TRY HARDER,0,right,,,right,4.139,0,6,6,5,1,,,,,,,,,,,,,,,,,,,,,,,,,,,,,,
,,,,,,,,,,,736,woman,21,13-15h,2021-12-01_20h47.58.802,bachelor,2021.2.3,MacIntel,71.42857143,IwAR0fIy4rXJbTyGk1qvhlqIHko2JwZHUIjMwkfZhFNfNAb7iLftWId5prvy8,,,,,,,,,,,,,,,,,,,,7 + 46 + 16 = 67?,,,,,,,,,,RESPONSE RECORDED,0,right,,,,,0,7,7,4,1,,,,,,,,,,,,,,,,,,,,,,,,,,,,,,
,,,,,,,,,,,736,woman,21,13-15h,2021-12-01_20h47.58.802,bachelor,2021.2.3,MacIntel,71.42857143,IwAR0fIy4rXJbTyGk1qvhlqIHko2JwZHUIjMwkfZhFNfNAb7iLftWId5prvy8,,,,,,,,,,,,,,,,,,,,7 x 11 - 21 = 56?,,,,,,,,,,GO FASTER,1,left,,,left,2.429,0,8,8,9,1,,,,,,,,,,,,,,,,,,,,,,,,,,,,,,
,,,,,,,,,,,736,woman,21,13-15h,2021-12-01_20h47.58.802,bachelor,2021.2.3,MacIntel,71.42857143,IwAR0fIy4rXJbTyGk1qvhlqIHko2JwZHUIjMwkfZhFNfNAb7iLftWId5prvy8,,,,,,,,,,,,,,,,,,,,56 - 6 x 3 = 33?,,,,,,,,,,SPEED UP,0,right,,,left,4.394,0,9,9,1,1,,,,,,,,,,,,,,,,,,,,,,,,,,,,,,
,,,,,,,,,,,736,woman,21,13-15h,2021-12-01_20h47.58.802,bachelor,2021.2.3,MacIntel,71.42857143,IwAR0fIy4rXJbTyGk1qvhlqIHko2JwZHUIjMwkfZhFNfNAb7iLftWId5prvy8,,,,,,,,,,,,,,,,,,,,10 x 11 + 45 = 155?,,,,,,,,,,RESPONSE RECORDED,1,left,,,left,4.675,0,10,10,10,1,,,,,,,,,,,,,,,,,,,,,,,,,,,,,,
,,,,,,,,,,,736,woman,21,13-15h,2021-12-01_20h47.58.802,bachelor,2021.2.3,MacIntel,71.42857143,IwAR0fIy4rXJbTyGk1qvhlqIHko2JwZHUIjMwkfZhFNfNAb7iLftWId5prvy8,,,,,,,,,,,,,,,,,,,,6 - 13 + 4 = -3?,,,,,,,,,,CONCENTRATE,1,left,,,left,4.052,0,11,11,3,1,,,,,,,,,,,,,,,,,,,,,,,,,,,,,,
,,,,,,,,,,,736,woman,21,13-15h,2021-12-01_20h47.58.802,bachelor,2021.2.3,MacIntel,71.42857143,IwAR0fIy4rXJbTyGk1qvhlqIHko2JwZHUIjMwkfZhFNfNAb7iLftWId5prvy8,,,,,,,,,,,,,,,,,,,,20 x 2 - 77 = 24?,,,,,,,,,,YOU NEED TO CONCENTRATE,0,right,,,right,3.696,0,12,12,11,1,,,,,,,,,,,,,,,,,,,,,,,,,,,,,,
,,,,,,,,,,,736,woman,21,13-15h,2021-12-01_20h47.58.802,bachelor,2021.2.3,MacIntel,71.42857143,IwAR0fIy4rXJbTyGk1qvhlqIHko2JwZHUIjMwkfZhFNfNAb7iLftWId5prvy8,,,,,,,,,,,,,,,,,,,,13 x 3 + 2 = 90?,,,,,,,,,,RESPONSE RECORDED,0,right,,,right,2.409,0,13,13,12,1,,,,,,,,,,,,,,,,,,,,,,,,,,,,,,
,,,,,,,,,"You have now completed the mental arithmetic task. You are halfway through the experiment.

Press SPACE to continue",,736,woman,21,13-15h,2021-12-01_20h47.58.802,bachelor,2021.2.3,MacIntel,71.42857143,IwAR0fIy4rXJbTyGk1qvhlqIHko2JwZHUIjMwkfZhFNfNAb7iLftWId5prvy8,,,,,,,,,,,,,,,,,,,,,,,,,,,,,,,,,,,,,,,,,,space,4.154,0,0,0,0,1,,,,,,,,,,,,,,,,,,,,,,,
,,,,,,,,,,,736,woman,21,13-15h,2021-12-01_20h47.58.802,bachelor,2021.2.3,MacIntel,71.42857143,IwAR0fIy4rXJbTyGk1qvhlqIHko2JwZHUIjMwkfZhFNfNAb7iLftWId5prvy8,,,,,,,,,,volcano,,,,,,,,,,,,,,,,,,,,,,,,,,,,,,,,,,,,,,,space,4.717,left,1.704,0,0,0,19,1,,,,,,,,,,,,,,
,,,,,,,,,,,736,woman,21,13-15h,2021-12-01_20h47.58.802,bachelor,2021.2.3,MacIntel,71.42857143,IwAR0fIy4rXJbTyGk1qvhlqIHko2JwZHUIjMwkfZhFNfNAb7iLftWId5prvy8,,,,,,,,,,student,,,,,,,,,,,,,,,,,,,,,,,,,,,,,,,,,,,,,,,,,left,0.838,0,1,1,18,1,,,,,,,,,,,,,,
,,,,,,,,,,,736,woman,21,13-15h,2021-12-01_20h47.58.802,bachelor,2021.2.3,MacIntel,71.42857143,IwAR0fIy4rXJbTyGk1qvhlqIHko2JwZHUIjMwkfZhFNfNAb7iLftWId5prvy8,,,,,,,,,,delirium,,,,,,,,,,,,,,,,,,,,,,,,,,,,,,,,,,,,,,,,,right,0.764,0,2,2,7,1,,,,,,,,,,,,,,
,,,,,,,,,,,736,woman,21,13-15h,2021-12-01_20h47.58.802,bachelor,2021.2.3,MacIntel,71.42857143,IwAR0fIy4rXJbTyGk1qvhlqIHko2JwZHUIjMwkfZhFNfNAb7iLftWId5prvy8,,,,,,,,,,shiny,,,,,,,,,,,,,,,,,,,,,,,,,,,,,,,,,,,,,,,,,right,1.545,0,3,3,25,1,,,,,,,,,,,,,,
,,,,,,,,,,,736,woman,21,13-15h,2021-12-01_20h47.58.802,bachelor,2021.2.3,MacIntel,71.42857143,IwAR0fIy4rXJbTyGk1qvhlqIHko2JwZHUIjMwkfZhFNfNAb7iLftWId5prvy8,,,,,,,,,,mouth,,,,,,,,,,,,,,,,,,,,,,,,,,,,,,,,,,,,,,,,,left,1.077,0,4,4,24,1,,,,,,,,,,,,,,
,,,,,,,,,,,736,woman,21,13-15h,2021-12-01_20h47.58.802,bachelor,2021.2.3,MacIntel,71.42857143,IwAR0fIy4rXJbTyGk1qvhlqIHko2JwZHUIjMwkfZhFNfNAb7iLftWId5prvy8,,,,,,,,,,football,,,,,,,,,,,,,,,,,,,,,,,,,,,,,,,,,,,,,,,,,right,1.809,0,5,5,27,1,,,,,,,,,,,,,,
,,,,,,,,,,,736,woman,21,13-15h,2021-12-01_20h47.58.802,bachelor,2021.2.3,MacIntel,71.42857143,IwAR0fIy4rXJbTyGk1qvhlqIHko2JwZHUIjMwkfZhFNfNAb7iLftWId5prvy8,,,,,,,,,,bridge,,,,,,,,,,,,,,,,,,,,,,,,,,,,,,,,,,,,,,,,,right,1.229,0,6,6,14,1,,,,,,,,,,,,,,
,,,,,,,,,,,736,woman,21,13-15h,2021-12-01_20h47.58.802,bachelor,2021.2.3,MacIntel,71.42857143,IwAR0fIy4rXJbTyGk1qvhlqIHko2JwZHUIjMwkfZhFNfNAb7iLftWId5prvy8,,,,,,,,,,truck,,,,,,,,,,,,,,,,,,,,,,,,,,,,,,,,,,,,,,,,,right,0.891,0,7,7,17,1,,,,,,,,,,,,,,
,,,,,,,,,,,736,woman,21,13-15h,2021-12-01_20h47.58.802,bachelor,2021.2.3,MacIntel,71.42857143,IwAR0fIy4rXJbTyGk1qvhlqIHko2JwZHUIjMwkfZhFNfNAb7iLftWId5prvy8,,,,,,,,,,embassy,,,,,,,,,,,,,,,,,,,,,,,,,,,,,,,,,,,,,,,,,right,0.897,0,8,8,6,1,,,,,,,,,,,,,,
,,,,,,,,,,,736,woman,21,13-15h,2021-12-01_20h47.58.802,bachelor,2021.2.3,MacIntel,71.42857143,IwAR0fIy4rXJbTyGk1qvhlqIHko2JwZHUIjMwkfZhFNfNAb7iLftWId5prvy8,,,,,,,,,,squeal,,,,,,,,,,,,,,,,,,,,,,,,,,,,,,,,,,,,,,,,,right,1.829,0,9,9,9,1,,,,,,,,,,,,,,
,,,,,,,,,,,736,woman,21,13-15h,2021-12-01_20h47.58.802,bachelor,2021.2.3,MacIntel,71.42857143,IwAR0fIy4rXJbTyGk1qvhlqIHko2JwZHUIjMwkfZhFNfNAb7iLftWId5prvy8,,,,,,,,,,rocket,,,,,,,,,,,,,,,,,,,,,,,,,,,,,,,,,,,,,,,,,left,1.155,0,10,10,15,1,,,,,,,,,,,,,,
,,,,,,,,,,,736,woman,21,13-15h,2021-12-01_20h47.58.802,bachelor,2021.2.3,MacIntel,71.42857143,IwAR0fIy4rXJbTyGk1qvhlqIHko2JwZHUIjMwkfZhFNfNAb7iLftWId5prvy8,,,,,,,,,,soft,,,,,,,,,,,,,,,,,,,,,,,,,,,,,,,,,,,,,,,,,left,1.19,0,11,11,11,1,,,,,,,,,,,,,,
,,,,,,,,,,,736,woman,21,13-15h,2021-12-01_20h47.58.802,bachelor,2021.2.3,MacIntel,71.42857143,IwAR0fIy4rXJbTyGk1qvhlqIHko2JwZHUIjMwkfZhFNfNAb7iLftWId5prvy8,,,,,,,,,,politician,,,,,,,,,,,,,,,,,,,,,,,,,,,,,,,,,,,,,,,,,left,1.626,0,12,12,22,1,,,,,,,,,,,,,,
,,,,,,,,,,,736,woman,21,13-15h,2021-12-01_20h47.58.802,bachelor,2021.2.3,MacIntel,71.42857143,IwAR0fIy4rXJbTyGk1qvhlqIHko2JwZHUIjMwkfZhFNfNAb7iLftWId5prvy8,,,,,,,,,,sled,,,,,,,,,,,,,,,,,,,,,,,,,,,,,,,,,,,,,,,,,right,1.179,0,13,13,5,1,,,,,,,,,,,,,,
,,,,,,,,,,,736,woman,21,13-15h,2021-12-01_20h47.58.802,bachelor,2021.2.3,MacIntel,71.42857143,IwAR0fIy4rXJbTyGk1qvhlqIHko2JwZHUIjMwkfZhFNfNAb7iLftWId5prvy8,,,,,,,,,,stole,,,,,,,,,,,,,,,,,,,,,,,,,,,,,,,,,,,,,,,,,left,2.57,0,14,14,3,1,,,,,,,,,,,,,,
,,,,,,,,,,,736,woman,21,13-15h,2021-12-01_20h47.58.802,bachelor,2021.2.3,MacIntel,71.42857143,IwAR0fIy4rXJbTyGk1qvhlqIHko2JwZHUIjMwkfZhFNfNAb7iLftWId5prvy8,,,,,,,,,,diplomat,,,,,,,,,,,,,,,,,,,,,,,,,,,,,,,,,,,,,,,,,left,2.421,0,15,15,20,1,,,,,,,,,,,,,,
,,,,,,,,,,,736,woman,21,13-15h,2021-12-01_20h47.58.802,bachelor,2021.2.3,MacIntel,71.42857143,IwAR0fIy4rXJbTyGk1qvhlqIHko2JwZHUIjMwkfZhFNfNAb7iLftWId5prvy8,,,,,,,,,,ate,,,,,,,,,,,,,,,,,,,,,,,,,,,,,,,,,,,,,,,,,right,1.179,0,16,16,4,1,,,,,,,,,,,,,,
,,,,,,,,,,,736,woman,21,13-15h,2021-12-01_20h47.58.802,bachelor,2021.2.3,MacIntel,71.42857143,IwAR0fIy4rXJbTyGk1qvhlqIHko2JwZHUIjMwkfZhFNfNAb7iLftWId5prvy8,,,,,,,,,,clang,,,,,,,,,,,,,,,,,,,,,,,,,,,,,,,,,,,,,,,,,right,2.075,0,17,17,13,1,,,,,,,,,,,,,,
,,,,,,,,,,,736,woman,21,13-15h,2021-12-01_20h47.58.802,bachelor,2021.2.3,MacIntel,71.42857143,IwAR0fIy4rXJbTyGk1qvhlqIHko2JwZHUIjMwkfZhFNfNAb7iLftWId5prvy8,,,,,,,,,,leg,,,,,,,,,,,,,,,,,,,,,,,,,,,,,,,,,,,,,,,,,right,1.012,0,18,18,2,1,,,,,,,,,,,,,,
,,,,,,,,,,,736,woman,21,13-15h,2021-12-01_20h47.58.802,bachelor,2021.2.3,MacIntel,71.42857143,IwAR0fIy4rXJbTyGk1qvhlqIHko2JwZHUIjMwkfZhFNfNAb7iLftWId5prvy8,,,,,,,,,,store,,,,,,,,,,,,,,,,,,,,,,,,,,,,,,,,,,,,,,,,,right,1.824,0,19,19,8,1,,,,,,,,,,,,,,
,,,,,,,,,,,736,woman,21,13-15h,2021-12-01_20h47.58.802,bachelor,2021.2.3,MacIntel,71.42857143,IwAR0fIy4rXJbTyGk1qvhlqIHko2JwZHUIjMwkfZhFNfNAb7iLftWId5prvy8,,,,,,,,,,handshake,,,,,,,,,,,,,,,,,,,,,,,,,,,,,,,,,,,,,,,,,left,1.168,0,20,20,1,1,,,,,,,,,,,,,,
,,,,,,,,,,,736,woman,21,13-15h,2021-12-01_20h47.58.802,bachelor,2021.2.3,MacIntel,71.42857143,IwAR0fIy4rXJbTyGk1qvhlqIHko2JwZHUIjMwkfZhFNfNAb7iLftWId5prvy8,,,,,,,,,,nose,,,,,,,,,,,,,,,,,,,,,,,,,,,,,,,,,,,,,,,,,left,1.311,0,21,21,26,1,,,,,,,,,,,,,,
,,,,,,,,,,,736,woman,21,13-15h,2021-12-01_20h47.58.802,bachelor,2021.2.3,MacIntel,71.42857143,IwAR0fIy4rXJbTyGk1qvhlqIHko2JwZHUIjMwkfZhFNfNAb7iLftWId5prvy8,,,,,,,,,,businessman,,,,,,,,,,,,,,,,,,,,,,,,,,,,,,,,,,,,,,,,,left,1.468,0,22,22,16,1,,,,,,,,,,,,,,
,,,,,,,,,,,736,woman,21,13-15h,2021-12-01_20h47.58.802,bachelor,2021.2.3,MacIntel,71.42857143,IwAR0fIy4rXJbTyGk1qvhlqIHko2JwZHUIjMwkfZhFNfNAb7iLftWId5prvy8,,,,,,,,,,school,,,,,,,,,,,,,,,,,,,,,,,,,,,,,,,,,,,,,,,,,left,3.134,0,23,23,10,1,,,,,,,,,,,,,,
,,,,,,,,,,,736,woman,21,13-15h,2021-12-01_20h47.58.802,bachelor,2021.2.3,MacIntel,71.42857143,IwAR0fIy4rXJbTyGk1qvhlqIHko2JwZHUIjMwkfZhFNfNAb7iLftWId5prvy8,,,,,,,,,,farm,,,,,,,,,,,,,,,,,,,,,,,,,,,,,,,,,,,,,,,,,left,1.004,0,24,24,12,1,,,,,,,,,,,,,,
,,,,,,,,,,,736,woman,21,13-15h,2021-12-01_20h47.58.802,bachelor,2021.2.3,MacIntel,71.42857143,IwAR0fIy4rXJbTyGk1qvhlqIHko2JwZHUIjMwkfZhFNfNAb7iLftWId5prvy8,,,,,,,,,,thunder,,,,,,,,,,,,,,,,,,,,,,,,,,,,,,,,,,,,,,,,,left,1.095,0,25,25,21,1,,,,,,,,,,,,,,
,,,,,,,,,,,736,woman,21,13-15h,2021-12-01_20h47.58.802,bachelor,2021.2.3,MacIntel,71.42857143,IwAR0fIy4rXJbTyGk1qvhlqIHko2JwZHUIjMwkfZhFNfNAb7iLftWId5prvy8,,,,,,,,,,actor,,,,,,,,,,,,,,,,,,,,,,,,,,,,,,,,,,,,,,,,,left,0.815,0,26,26,23,1,,,,,,,,,,,,,,
,,,,,,,,,,,736,woman,21,13-15h,2021-12-01_20h47.58.802,bachelor,2021.2.3,MacIntel,71.42857143,IwAR0fIy4rXJbTyGk1qvhlqIHko2JwZHUIjMwkfZhFNfNAb7iLftWId5prvy8,,,,,,,,,,jaw,,,,,,,,,,,,,,,,,,,,,,,,,,,,,,,,,,,,,,,,,right,1.073,0,27,27,0,1,,,,,,,,,,,,,,
,,,,,,,,,,,736,woman,21,13-15h,2021-12-01_20h47.58.802,bachelor,2021.2.3,MacIntel,71.42857143,IwAR0fIy4rXJbTyGk1qvhlqIHko2JwZHUIjMwkfZhFNfNAb7iLftWId5prvy8,,,,,,,,,,,,,,,,,,,,,,,,,,,,,,,,,,,,,,,,,,,,,,,,,,,,,,,,,,space,22.162,7,8.826,0,0,0,2,1,I felt alone during the experiment.,,,,
,,,,,,,,,,,736,woman,21,13-15h,2021-12-01_20h47.58.802,bachelor,2021.2.3,MacIntel,71.42857143,IwAR0fIy4rXJbTyGk1qvhlqIHko2JwZHUIjMwkfZhFNfNAb7iLftWId5prvy8,,,,,,,,,,,,,,,,,,,,,,,,,,,,,,,,,,,,,,,,,,,,,,,,,,,,,,,,,,,,7,10.138,0,1,1,1,1,Negative feedback showed me that I had lower task competencies than the other participants.,,,,
,,,,,,,,,,,736,woman,21,13-15h,2021-12-01_20h47.58.802,bachelor,2021.2.3,MacIntel,71.42857143,IwAR0fIy4rXJbTyGk1qvhlqIHko2JwZHUIjMwkfZhFNfNAb7iLftWId5prvy8,,,,,,,,,,,,,,,,,,,,,,,,,,,,,,,,,,,,,,,,,,,,,,,,,,,,,,,,,,,,7,1.815,0,2,2,3,1,I felt stressed during the experiment.,,,,
,,,,,,,,,,,736,woman,21,13-15h,2021-12-01_20h47.58.802,bachelor,2021.2.3,MacIntel,71.42857143,IwAR0fIy4rXJbTyGk1qvhlqIHko2JwZHUIjMwkfZhFNfNAb7iLftWId5prvy8,,,,,,,,,,,,,,,,,,,,,,,,,,,,,,,,,,,,,,,,,,,,,,,,,,,,,,,,,,,,4,5.747,0,3,3,0,1,I felt excluded during the experiment.,,,,
,,,,,,,,,,,736,woman,21,13-15h,2021-12-01_20h47.58.802,bachelor,2021.2.3,MacIntel,71.42857143,IwAR0fIy4rXJbTyGk1qvhlqIHko2JwZHUIjMwkfZhFNfNAb7iLftWId5prvy8,,,,,,,,,,,,,,,,,,,,,,,,,,,,,,,,,,,,,,,,,,,,,,,,,,,,,,,,,,,,,,,,,,,,space,35.513,space,12.286
