key_resp_17.keys,key_resp_17.rt,key_resp_13.keys,key_resp_13.rt,trials_5.thisRepN,trials_5.thisTrialN,trials_5.thisN,trials_5.thisIndex,trials_5.ran,Text,Condition,participant,Gender*,Age*,Estimated hours since last sleep*,date,expName,psychopyVersion,OS,frameRate,key_resp_2.keys,key_resp_2.rt,key_resp_11.keys,key_resp_11.rt,trials_6.thisRepN,trials_6.thisTrialN,trials_6.thisN,trials_6.thisIndex,trials_6.ran,Word,key_resp_3.keys,key_resp_3.rt,key_resp_9.keys,key_resp_9.rt,trials_2.thisRepN,trials_2.thisTrialN,trials_2.thisN,trials_2.thisIndex,trials_2.ran,Stimuli,keyrespp.keys,keyrespp.rt,key_resp_4.keys,key_resp_4.rt,trials.thisRepN,trials.thisTrialN,trials.thisN,trials.thisIndex,trials.ran,Response,Congr,RightAns,key_resp_8.keys,key_resp_8.rt,key_resp_10.keys,key_resp_10.rt,trials_4.thisRepN,trials_4.thisTrialN,trials_4.thisN,trials_4.thisIndex,trials_4.ran,key_resp_14.keys,key_resp_14.rt,trials_7.thisRepN,trials_7.thisTrialN,trials_7.thisN,trials_7.thisIndex,trials_7.ran,key_resp_5.keys,key_resp_5.rt,key_resp_12.keys,key_resp_12.rt,trials_3.thisRepN,trials_3.thisTrialN,trials_3.thisN,trials_3.thisIndex,trials_3.ran,key_resp_6.keys,key_resp_6.rt,key_resp_15.keys,key_resp_15.rt,socialexc.thisRepN,socialexc.thisTrialN,socialexc.thisN,socialexc.thisIndex,socialexc.ran,Question,key_resp_7.keys,key_resp_7.rt,key_resp_16.keys,key_resp_16.rt
y,1.698,space,35.9885,0,0,0,0,1,"Please complete all tasks. It will take no more than 5-10 minutes.

Thank you for contributing to science and deciding to offer your time. Your participation is highly valued. 

Press SPACE to start the experiment",1,,other,8,7-9h,2021-12-01_13h24.12.112,bachelor,2021.2.3,MacIntel,60.0024001,,,,,,,,,,,,,,,,,,,,,,,,,,,,,,,,,,,,,,,,,,,,,,,,,,,,,,,,,,,,,,,,,,,,,,,
,,,,,,,,,,,,other,8,7-9h,2021-12-01_13h24.12.112,bachelor,2021.2.3,MacIntel,60.0024001,left,0.7596,left,1.7539,0,0,0,14,1,tourist,,,,,,,,,,,,,,,,,,,,,,,,,,,,,,,,,,,,,,,,,,,,,,,,,,,,,,,,,,,,,
,,,,,,,,,,,,other,8,7-9h,2021-12-01_13h24.12.112,bachelor,2021.2.3,MacIntel,60.0024001,,,right,0.3593,0,1,1,2,1,home,,,,,,,,,,,,,,,,,,,,,,,,,,,,,,,,,,,,,,,,,,,,,,,,,,,,,,,,,,,,,
,,,,,,,,,,,,other,8,7-9h,2021-12-01_13h24.12.112,bachelor,2021.2.3,MacIntel,60.0024001,,,left,0.1778,0,2,2,23,1,fee,,,,,,,,,,,,,,,,,,,,,,,,,,,,,,,,,,,,,,,,,,,,,,,,,,,,,,,,,,,,,
,,,,,,,,,,,,other,8,7-9h,2021-12-01_13h24.12.112,bachelor,2021.2.3,MacIntel,60.0024001,,,right,0.0789,0,3,3,18,1,screech,,,,,,,,,,,,,,,,,,,,,,,,,,,,,,,,,,,,,,,,,,,,,,,,,,,,,,,,,,,,,
,,,,,,,,,,,,other,8,7-9h,2021-12-01_13h24.12.112,bachelor,2021.2.3,MacIntel,60.0024001,,,left,0.1796,0,4,4,24,1,lip,,,,,,,,,,,,,,,,,,,,,,,,,,,,,,,,,,,,,,,,,,,,,,,,,,,,,,,,,,,,,
,,,,,,,,,,,,other,8,7-9h,2021-12-01_13h24.12.112,bachelor,2021.2.3,MacIntel,60.0024001,,,right,0.1161,0,5,5,1,1,ricochet,,,,,,,,,,,,,,,,,,,,,,,,,,,,,,,,,,,,,,,,,,,,,,,,,,,,,,,,,,,,,
,,,,,,,,,,,,other,8,7-9h,2021-12-01_13h24.12.112,bachelor,2021.2.3,MacIntel,60.0024001,,,left,0.1489,0,6,6,13,1,belch,,,,,,,,,,,,,,,,,,,,,,,,,,,,,,,,,,,,,,,,,,,,,,,,,,,,,,,,,,,,,
,,,,,,,,,,,,other,8,7-9h,2021-12-01_13h24.12.112,bachelor,2021.2.3,MacIntel,60.0024001,,,right,0.206,0,7,7,0,1,drank,,,,,,,,,,,,,,,,,,,,,,,,,,,,,,,,,,,,,,,,,,,,,,,,,,,,,,,,,,,,,
,,,,,,,,,,,,other,8,7-9h,2021-12-01_13h24.12.112,bachelor,2021.2.3,MacIntel,60.0024001,,,left,0.2044,0,8,8,20,1,journalist,,,,,,,,,,,,,,,,,,,,,,,,,,,,,,,,,,,,,,,,,,,,,,,,,,,,,,,,,,,,,
,,,,,,,,,,,,other,8,7-9h,2021-12-01_13h24.12.112,bachelor,2021.2.3,MacIntel,60.0024001,,,right,0.1802,0,9,9,15,1,minister,,,,,,,,,,,,,,,,,,,,,,,,,,,,,,,,,,,,,,,,,,,,,,,,,,,,,,,,,,,,,
,,,,,,,,,,,,other,8,7-9h,2021-12-01_13h24.12.112,bachelor,2021.2.3,MacIntel,60.0024001,,,left,0.2322,0,10,10,8,1,college,,,,,,,,,,,,,,,,,,,,,,,,,,,,,,,,,,,,,,,,,,,,,,,,,,,,,,,,,,,,,
,,,,,,,,,,,,other,8,7-9h,2021-12-01_13h24.12.112,bachelor,2021.2.3,MacIntel,60.0024001,,,right,0.1674,0,11,11,9,1,hot,,,,,,,,,,,,,,,,,,,,,,,,,,,,,,,,,,,,,,,,,,,,,,,,,,,,,,,,,,,,,
,,,,,,,,,,,,other,8,7-9h,2021-12-01_13h24.12.112,bachelor,2021.2.3,MacIntel,60.0024001,,,left,0.2334,0,12,12,7,1,cough,,,,,,,,,,,,,,,,,,,,,,,,,,,,,,,,,,,,,,,,,,,,,,,,,,,,,,,,,,,,,
,,,,,,,,,,,,other,8,7-9h,2021-12-01_13h24.12.112,bachelor,2021.2.3,MacIntel,60.0024001,,,right,0.136,0,13,13,3,1,foot,,,,,,,,,,,,,,,,,,,,,,,,,,,,,,,,,,,,,,,,,,,,,,,,,,,,,,,,,,,,,
,,,,,,,,,,,,other,8,7-9h,2021-12-01_13h24.12.112,bachelor,2021.2.3,MacIntel,60.0024001,,,left,0.1938,0,14,14,26,1,eye,,,,,,,,,,,,,,,,,,,,,,,,,,,,,,,,,,,,,,,,,,,,,,,,,,,,,,,,,,,,,
,,,,,,,,,,,,other,8,7-9h,2021-12-01_13h24.12.112,bachelor,2021.2.3,MacIntel,60.0024001,,,right,0.1883,0,15,15,17,1,scientist,,,,,,,,,,,,,,,,,,,,,,,,,,,,,,,,,,,,,,,,,,,,,,,,,,,,,,,,,,,,,
,,,,,,,,,,,,other,8,7-9h,2021-12-01_13h24.12.112,bachelor,2021.2.3,MacIntel,60.0024001,,,left,0.1846,0,16,16,12,1,forest,,,,,,,,,,,,,,,,,,,,,,,,,,,,,,,,,,,,,,,,,,,,,,,,,,,,,,,,,,,,,
,,,,,,,,,,,,other,8,7-9h,2021-12-01_13h24.12.112,bachelor,2021.2.3,MacIntel,60.0024001,,,right,0.1671,0,17,17,4,1,hospital,,,,,,,,,,,,,,,,,,,,,,,,,,,,,,,,,,,,,,,,,,,,,,,,,,,,,,,,,,,,,
,,,,,,,,,,,,other,8,7-9h,2021-12-01_13h24.12.112,bachelor,2021.2.3,MacIntel,60.0024001,,,left,0.182,0,18,18,27,1,applause,,,,,,,,,,,,,,,,,,,,,,,,,,,,,,,,,,,,,,,,,,,,,,,,,,,,,,,,,,,,,
,,,,,,,,,,,,other,8,7-9h,2021-12-01_13h24.12.112,bachelor,2021.2.3,MacIntel,60.0024001,,,right,0.1793,0,19,19,22,1,woman,,,,,,,,,,,,,,,,,,,,,,,,,,,,,,,,,,,,,,,,,,,,,,,,,,,,,,,,,,,,,
,,,,,,,,,,,,other,8,7-9h,2021-12-01_13h24.12.112,bachelor,2021.2.3,MacIntel,60.0024001,,,left,0.2169,0,20,20,19,1,wonder,,,,,,,,,,,,,,,,,,,,,,,,,,,,,,,,,,,,,,,,,,,,,,,,,,,,,,,,,,,,,
,,,,,,,,,,,,other,8,7-9h,2021-12-01_13h24.12.112,bachelor,2021.2.3,MacIntel,60.0024001,,,right,0.1314,0,21,21,11,1,gasp,,,,,,,,,,,,,,,,,,,,,,,,,,,,,,,,,,,,,,,,,,,,,,,,,,,,,,,,,,,,,
,,,,,,,,,,,,other,8,7-9h,2021-12-01_13h24.12.112,bachelor,2021.2.3,MacIntel,60.0024001,,,left,0.2198,0,22,22,25,1,soccer,,,,,,,,,,,,,,,,,,,,,,,,,,,,,,,,,,,,,,,,,,,,,,,,,,,,,,,,,,,,,
,,,,,,,,,,,,other,8,7-9h,2021-12-01_13h24.12.112,bachelor,2021.2.3,MacIntel,60.0024001,,,right,0.1702,0,23,23,5,1,cold,,,,,,,,,,,,,,,,,,,,,,,,,,,,,,,,,,,,,,,,,,,,,,,,,,,,,,,,,,,,,
,,,,,,,,,,,,other,8,7-9h,2021-12-01_13h24.12.112,bachelor,2021.2.3,MacIntel,60.0024001,,,left,0.2319,0,24,24,10,1,church,,,,,,,,,,,,,,,,,,,,,,,,,,,,,,,,,,,,,,,,,,,,,,,,,,,,,,,,,,,,,
,,,,,,,,,,,,other,8,7-9h,2021-12-01_13h24.12.112,bachelor,2021.2.3,MacIntel,60.0024001,,,right,0.1308,0,25,25,21,1,ambulance,,,,,,,,,,,,,,,,,,,,,,,,,,,,,,,,,,,,,,,,,,,,,,,,,,,,,,,,,,,,,
,,,,,,,,,,,,other,8,7-9h,2021-12-01_13h24.12.112,bachelor,2021.2.3,MacIntel,60.0024001,,,left,0.2318,0,26,26,16,1,gunshot,,,,,,,,,,,,,,,,,,,,,,,,,,,,,,,,,,,,,,,,,,,,,,,,,,,,,,,,,,,,,
,,,,,,,,,,,,other,8,7-9h,2021-12-01_13h24.12.112,bachelor,2021.2.3,MacIntel,60.0024001,,,right,0.1433,0,27,27,6,1,airport,,,,,,,,,,,,,,,,,,,,,,,,,,,,,,,,,,,,,,,,,,,,,,,,,,,,,,,,,,,,,
,,,,,,,,,,,,other,8,7-9h,2021-12-01_13h24.12.112,bachelor,2021.2.3,MacIntel,60.0024001,,,,,,,,,,,space,1.7125,left,0.8684,0,0,0,0,1,5 x 5 - 10 = 22?,,,,,,,,,,,,,,,,,,,,,,,,,,,,,,,,,,,,,,,,,,,,,,,,,,,
,,,,,,,,,,,,other,8,7-9h,2021-12-01_13h24.12.112,bachelor,2021.2.3,MacIntel,60.0024001,,,,,,,,,,,,,right,0.1328,0,1,1,2,1,10 - 5 - 16 = 21?,,,,,,,,,,,,,,,,,,,,,,,,,,,,,,,,,,,,,,,,,,,,,,,,,,,
,,,,,,,,,,,,other,8,7-9h,2021-12-01_13h24.12.112,bachelor,2021.2.3,MacIntel,60.0024001,,,,,,,,,,,,,left,0.1268,0,2,2,4,1,11 + 3 - 7 = 8?,,,,,,,,,,,,,,,,,,,,,,,,,,,,,,,,,,,,,,,,,,,,,,,,,,,
,,,,,,,,,,,,other,8,7-9h,2021-12-01_13h24.12.112,bachelor,2021.2.3,MacIntel,60.0024001,,,,,,,,,,,,,right,0.1154,0,3,3,3,1,2 + 20 x 4 = 82?,,,,,,,,,,,,,,,,,,,,,,,,,,,,,,,,,,,,,,,,,,,,,,,,,,,
,,,,,,,,,,,,other,8,7-9h,2021-12-01_13h24.12.112,bachelor,2021.2.3,MacIntel,60.0024001,,,,,,,,,,,,,left,0.1577,0,4,4,1,1,10 - 18 + 1 = -9?,,,,,,,,,,,,,,,,,,,,,,,,,,,,,,,,,,,,,,,,,,,,,,,,,,,
,,,,,,,,,,,,other,8,7-9h,2021-12-01_13h24.12.112,bachelor,2021.2.3,MacIntel,60.0024001,,,,,,,,,,,,,,,,,,,,50 x 3 + 12 = 147?,space,3.0217,right,0.4906,0,0,0,1,1,SPEED UP,1,left,,,,,,,,,,,,,,,,,,,,,,,,,,,,,,,,,,,,,,,
,,,,,,,,,,,,other,8,7-9h,2021-12-01_13h24.12.112,bachelor,2021.2.3,MacIntel,60.0024001,,,,,,,,,,,,,,,,,,,,2 x 40 + 3 = 84?,,,left,1.6601,0,1,1,6,1,RESPONSE RECORDED,0,right,,,,,,,,,,,,,,,,,,,,,,,,,,,,,,,,,,,,,,,
,,,,,,,,,,,,other,8,7-9h,2021-12-01_13h24.12.112,bachelor,2021.2.3,MacIntel,60.0024001,,,,,,,,,,,,,,,,,,,,14 x 2 - 3 = 25?,,,right,0.1191,0,2,2,13,1,TRY HARDER,1,left,,,,,,,,,,,,,,,,,,,,,,,,,,,,,,,,,,,,,,,
,,,,,,,,,,,,other,8,7-9h,2021-12-01_13h24.12.112,bachelor,2021.2.3,MacIntel,60.0024001,,,,,,,,,,,,,,,,,,,,72 + 17 x 3 = 121?,,,right,1.6487,0,3,3,2,1,RESPONSE RECORDED,0,right,,,,,,,,,,,,,,,,,,,,,,,,,,,,,,,,,,,,,,,
,,,,,,,,,,,,other,8,7-9h,2021-12-01_13h24.12.112,bachelor,2021.2.3,MacIntel,60.0024001,,,,,,,,,,,,,,,,,,,,5 x 5 - 29 = -40?,,,right,1.7859,0,4,4,7,1,SPEED UP,0,right,,,,,,,,,,,,,,,,,,,,,,,,,,,,,,,,,,,,,,,
,,,,,,,,,,,,other,8,7-9h,2021-12-01_13h24.12.112,bachelor,2021.2.3,MacIntel,60.0024001,,,,,,,,,,,,,,,,,,,,54 - 40 x -2 = - 27?,,,right,1.4673,0,5,5,8,1,RESPONSE RECORDED,0,right,,,,,,,,,,,,,,,,,,,,,,,,,,,,,,,,,,,,,,,
,,,,,,,,,,,,other,8,7-9h,2021-12-01_13h24.12.112,bachelor,2021.2.3,MacIntel,60.0024001,,,,,,,,,,,,,,,,,,,,54 + 60 - 1 = 113?,,,right,1.3463,0,6,6,5,1,PAY ATTENTION,1,left,,,,,,,,,,,,,,,,,,,,,,,,,,,,,,,,,,,,,,,
,,,,,,,,,,,,other,8,7-9h,2021-12-01_13h24.12.112,bachelor,2021.2.3,MacIntel,60.0024001,,,,,,,,,,,,,,,,,,,,7 x 11 - 21 = 56?,,,right,2.4131,0,7,7,9,1,SPEED UP,1,left,,,,,,,,,,,,,,,,,,,,,,,,,,,,,,,,,,,,,,,
,,,,,,,,,,,,other,8,7-9h,2021-12-01_13h24.12.112,bachelor,2021.2.3,MacIntel,60.0024001,,,,,,,,,,,,,,,,,,,,35 - 65 - 20 = - 55?,,,right,2.6686,0,8,8,10,1,RESPONSE RECORDED,0,right,,,,,,,,,,,,,,,,,,,,,,,,,,,,,,,,,,,,,,,
,,,,,,,,,,,,other,8,7-9h,2021-12-01_13h24.12.112,bachelor,2021.2.3,MacIntel,60.0024001,,,,,,,,,,,,,,,,,,,,14 x 2 + 10 = 38?,,,right,2.8637,0,9,9,4,1,CONCENTRATE,1,left,,,,,,,,,,,,,,,,,,,,,,,,,,,,,,,,,,,,,,,
,,,,,,,,,,,,other,8,7-9h,2021-12-01_13h24.12.112,bachelor,2021.2.3,MacIntel,60.0024001,,,,,,,,,,,,,,,,,,,,47 + 13 - 7 = 53?,,,right,2.1158,0,10,10,11,1,RESPONSE RECORDED,1,left,,,,,,,,,,,,,,,,,,,,,,,,,,,,,,,,,,,,,,,
,,,,,,,,,,,,other,8,7-9h,2021-12-01_13h24.12.112,bachelor,2021.2.3,MacIntel,60.0024001,,,,,,,,,,,,,,,,,,,,6 - 58 + 11 = -41?,,,right,0.0126,0,11,11,3,1,RESPONSE RECORDED,1,left,,,,,,,,,,,,,,,,,,,,,,,,,,,,,,,,,,,,,,,
,,,,,,,,,,,,other,8,7-9h,2021-12-01_13h24.12.112,bachelor,2021.2.3,MacIntel,60.0024001,,,,,,,,,,,,,,,,,,,,2 - 15 + 39 = 27?,,,right,0.0108,0,12,12,0,1,RESPONSE RECORDED,0,right,,,,,,,,,,,,,,,,,,,,,,,,,,,,,,,,,,,,,,,
,,,,,,,,,,,,other,8,7-9h,2021-12-01_13h24.12.112,bachelor,2021.2.3,MacIntel,60.0024001,,,,,,,,,,,,,,,,,,,,53 + 13 x 7 = -150?,,,right,0.1145,0,13,13,12,1,YOU’RE NOT TRYING HARD ENOUGH,0,right,,,,,,,,,,,,,,,,,,,,,,,,,,,,,,,,,,,,,,,
,,,,,,,,,,,,other,8,7-9h,2021-12-01_13h24.12.112,bachelor,2021.2.3,MacIntel,60.0024001,,,,,,,,,,,,,,,,,,,,33 - 15 - 49 = -40?,,,,,,,,,,TRY HARDER,0,right,space,2.8358,right,0.9209,0,0,0,5,1,,,,,,,,,,,,,,,,,,,,,,,,,,,,,,
,,,,,,,,,,,,other,8,7-9h,2021-12-01_13h24.12.112,bachelor,2021.2.3,MacIntel,60.0024001,,,,,,,,,,,,,,,,,,,,20 x 2 - 77 = 24?,,,,,,,,,,YOU NEED TO CONCENTRATE,0,right,,,right,0.0804,0,1,1,11,1,,,,,,,,,,,,,,,,,,,,,,,,,,,,,,
,,,,,,,,,,,,other,8,7-9h,2021-12-01_13h24.12.112,bachelor,2021.2.3,MacIntel,60.0024001,,,,,,,,,,,,,,,,,,,,7 - 8 - 9 = -11?,,,,,,,,,,SPEED UP,0,right,,,right,0.0304,0,2,2,7,1,,,,,,,,,,,,,,,,,,,,,,,,,,,,,,
,,,,,,,,,,,,other,8,7-9h,2021-12-01_13h24.12.112,bachelor,2021.2.3,MacIntel,60.0024001,,,,,,,,,,,,,,,,,,,,2 x 40 + 10 = 800?,,,,,,,,,,RESPONSE RECORDED,0,right,,,right,0.0357,0,3,3,2,1,,,,,,,,,,,,,,,,,,,,,,,,,,,,,,
,,,,,,,,,,,,other,8,7-9h,2021-12-01_13h24.12.112,bachelor,2021.2.3,MacIntel,60.0024001,,,,,,,,,,,,,,,,,,,,62 - 15 x 3 = 5?,,,,,,,,,,PAY ATTENTION,0,right,,,right,0.2155,0,4,4,8,1,,,,,,,,,,,,,,,,,,,,,,,,,,,,,,
,,,,,,,,,,,,other,8,7-9h,2021-12-01_13h24.12.112,bachelor,2021.2.3,MacIntel,60.0024001,,,,,,,,,,,,,,,,,,,,12 + 10 x 4 = 70?,,,,,,,,,,RESPONSE RECORDED,0,right,,,right,0.0126,0,5,5,6,1,,,,,,,,,,,,,,,,,,,,,,,,,,,,,,
,,,,,,,,,,,,other,8,7-9h,2021-12-01_13h24.12.112,bachelor,2021.2.3,MacIntel,60.0024001,,,,,,,,,,,,,,,,,,,,13 x 3 + 2 = 90?,,,,,,,,,,RESPONSE RECORDED,0,right,,,right,0.083,0,6,6,12,1,,,,,,,,,,,,,,,,,,,,,,,,,,,,,,
,,,,,,,,,,,,other,8,7-9h,2021-12-01_13h24.12.112,bachelor,2021.2.3,MacIntel,60.0024001,,,,,,,,,,,,,,,,,,,,55 - 66 + 14 = 3?,,,,,,,,,,RESPONSE RECORDED,1,left,,,right,0.0648,0,7,7,13,1,,,,,,,,,,,,,,,,,,,,,,,,,,,,,,
,,,,,,,,,,,,other,8,7-9h,2021-12-01_13h24.12.112,bachelor,2021.2.3,MacIntel,60.0024001,,,,,,,,,,,,,,,,,,,,56 - 6 x 3 = 33?,,,,,,,,,,SPEED UP,0,right,,,right,0.0628,0,8,8,1,1,,,,,,,,,,,,,,,,,,,,,,,,,,,,,,
,,,,,,,,,,,,other,8,7-9h,2021-12-01_13h24.12.112,bachelor,2021.2.3,MacIntel,60.0024001,,,,,,,,,,,,,,,,,,,,10 x 11 + 45 = 155?,,,,,,,,,,RESPONSE RECORDED,1,left,,,right,0.2459,0,9,9,10,1,,,,,,,,,,,,,,,,,,,,,,,,,,,,,,
,,,,,,,,,,,,other,8,7-9h,2021-12-01_13h24.12.112,bachelor,2021.2.3,MacIntel,60.0024001,,,,,,,,,,,,,,,,,,,,17 x 2 - 10 = 24?,,,,,,,,,,RESPONSE RECORDED,1,left,,,right,0.0974,0,10,10,0,1,,,,,,,,,,,,,,,,,,,,,,,,,,,,,,
,,,,,,,,,,,,other,8,7-9h,2021-12-01_13h24.12.112,bachelor,2021.2.3,MacIntel,60.0024001,,,,,,,,,,,,,,,,,,,,6 - 13 + 4 = -3?,,,,,,,,,,CONCENTRATE,1,left,,,right,0.017,0,11,11,3,1,,,,,,,,,,,,,,,,,,,,,,,,,,,,,,
,,,,,,,,,,,,other,8,7-9h,2021-12-01_13h24.12.112,bachelor,2021.2.3,MacIntel,60.0024001,,,,,,,,,,,,,,,,,,,,7 x 11 - 21 = 56?,,,,,,,,,,GO FASTER,1,left,,,right,0.0373,0,12,12,9,1,,,,,,,,,,,,,,,,,,,,,,,,,,,,,,
,,,,,,,,,,,,other,8,7-9h,2021-12-01_13h24.12.112,bachelor,2021.2.3,MacIntel,60.0024001,,,,,,,,,,,,,,,,,,,,7 + 46 + 16 = 67?,,,,,,,,,,RESPONSE RECORDED,0,right,,,right,0.038,0,13,13,4,1,,,,,,,,,,,,,,,,,,,,,,,,,,,,,,
,,,,,,,,,"You have now completed the mental arithmetic task. You are halfway through the experiment.

Thank you for deciding to finish the tasks, it is much appreciated! Your effort is valued.

Press space to continue",,,other,8,7-9h,2021-12-01_13h24.12.112,bachelor,2021.2.3,MacIntel,60.0024001,,,,,,,,,,,,,,,,,,,,,,,,,,,,,,,,,,,,,,,,,,space,7.9987,0,0,0,0,1,,,,,,,,,,,,,,,,,,,,,,,
,,,,,,,,,,,,other,8,7-9h,2021-12-01_13h24.12.112,bachelor,2021.2.3,MacIntel,60.0024001,,,,,,,,,,soft,,,,,,,,,,,,,,,,,,,,,,,,,,,,,,,,,,,,,,,space,2.6135,right,0.3622,0,0,0,11,1,,,,,,,,,,,,,,
,,,,,,,,,,,,other,8,7-9h,2021-12-01_13h24.12.112,bachelor,2021.2.3,MacIntel,60.0024001,,,,,,,,,,football,,,,,,,,,,,,,,,,,,,,,,,,,,,,,,,,,,,,,,,,,left,0.1611,0,1,1,27,1,,,,,,,,,,,,,,
,,,,,,,,,,,,other,8,7-9h,2021-12-01_13h24.12.112,bachelor,2021.2.3,MacIntel,60.0024001,,,,,,,,,,nose,,,,,,,,,,,,,,,,,,,,,,,,,,,,,,,,,,,,,,,,,right,0.0876,0,2,2,26,1,,,,,,,,,,,,,,
,,,,,,,,,,,,other,8,7-9h,2021-12-01_13h24.12.112,bachelor,2021.2.3,MacIntel,60.0024001,,,,,,,,,,diplomat,,,,,,,,,,,,,,,,,,,,,,,,,,,,,,,,,,,,,,,,,left,0.0839,0,3,3,20,1,,,,,,,,,,,,,,
,,,,,,,,,,,,other,8,7-9h,2021-12-01_13h24.12.112,bachelor,2021.2.3,MacIntel,60.0024001,,,,,,,,,,school,,,,,,,,,,,,,,,,,,,,,,,,,,,,,,,,,,,,,,,,,right,0.0822,0,4,4,10,1,,,,,,,,,,,,,,
,,,,,,,,,,,,other,8,7-9h,2021-12-01_13h24.12.112,bachelor,2021.2.3,MacIntel,60.0024001,,,,,,,,,,handshake,,,,,,,,,,,,,,,,,,,,,,,,,,,,,,,,,,,,,,,,,left,0.0702,0,5,5,1,1,,,,,,,,,,,,,,
,,,,,,,,,,,,other,8,7-9h,2021-12-01_13h24.12.112,bachelor,2021.2.3,MacIntel,60.0024001,,,,,,,,,,rocket,,,,,,,,,,,,,,,,,,,,,,,,,,,,,,,,,,,,,,,,,right,0.085,0,6,6,15,1,,,,,,,,,,,,,,
,,,,,,,,,,,,other,8,7-9h,2021-12-01_13h24.12.112,bachelor,2021.2.3,MacIntel,60.0024001,,,,,,,,,,sled,,,,,,,,,,,,,,,,,,,,,,,,,,,,,,,,,,,,,,,,,left,0.0663,0,7,7,5,1,,,,,,,,,,,,,,
,,,,,,,,,,,,other,8,7-9h,2021-12-01_13h24.12.112,bachelor,2021.2.3,MacIntel,60.0024001,,,,,,,,,,leg,,,,,,,,,,,,,,,,,,,,,,,,,,,,,,,,,,,,,,,,,right,0.0676,0,8,8,2,1,,,,,,,,,,,,,,
,,,,,,,,,,,,other,8,7-9h,2021-12-01_13h24.12.112,bachelor,2021.2.3,MacIntel,60.0024001,,,,,,,,,,shiny,,,,,,,,,,,,,,,,,,,,,,,,,,,,,,,,,,,,,,,,,left,0.0693,0,9,9,25,1,,,,,,,,,,,,,,
,,,,,,,,,,,,other,8,7-9h,2021-12-01_13h24.12.112,bachelor,2021.2.3,MacIntel,60.0024001,,,,,,,,,,actor,,,,,,,,,,,,,,,,,,,,,,,,,,,,,,,,,,,,,,,,,right,0.0867,0,10,10,23,1,,,,,,,,,,,,,,
,,,,,,,,,,,,other,8,7-9h,2021-12-01_13h24.12.112,bachelor,2021.2.3,MacIntel,60.0024001,,,,,,,,,,store,,,,,,,,,,,,,,,,,,,,,,,,,,,,,,,,,,,,,,,,,left,0.0835,0,11,11,8,1,,,,,,,,,,,,,,
,,,,,,,,,,,,other,8,7-9h,2021-12-01_13h24.12.112,bachelor,2021.2.3,MacIntel,60.0024001,,,,,,,,,,student,,,,,,,,,,,,,,,,,,,,,,,,,,,,,,,,,,,,,,,,,right,0.0839,0,12,12,18,1,,,,,,,,,,,,,,
,,,,,,,,,,,,other,8,7-9h,2021-12-01_13h24.12.112,bachelor,2021.2.3,MacIntel,60.0024001,,,,,,,,,,farm,,,,,,,,,,,,,,,,,,,,,,,,,,,,,,,,,,,,,,,,,left,0.0835,0,13,13,12,1,,,,,,,,,,,,,,
,,,,,,,,,,,,other,8,7-9h,2021-12-01_13h24.12.112,bachelor,2021.2.3,MacIntel,60.0024001,,,,,,,,,,squeal,,,,,,,,,,,,,,,,,,,,,,,,,,,,,,,,,,,,,,,,,right,0.0875,0,14,14,9,1,,,,,,,,,,,,,,
,,,,,,,,,,,,other,8,7-9h,2021-12-01_13h24.12.112,bachelor,2021.2.3,MacIntel,60.0024001,,,,,,,,,,stole,,,,,,,,,,,,,,,,,,,,,,,,,,,,,,,,,,,,,,,,,left,0.0989,0,15,15,3,1,,,,,,,,,,,,,,
,,,,,,,,,,,,other,8,7-9h,2021-12-01_13h24.12.112,bachelor,2021.2.3,MacIntel,60.0024001,,,,,,,,,,clang,,,,,,,,,,,,,,,,,,,,,,,,,,,,,,,,,,,,,,,,,right,0.0687,0,16,16,13,1,,,,,,,,,,,,,,
,,,,,,,,,,,,other,8,7-9h,2021-12-01_13h24.12.112,bachelor,2021.2.3,MacIntel,60.0024001,,,,,,,,,,delirium,,,,,,,,,,,,,,,,,,,,,,,,,,,,,,,,,,,,,,,,,left,0.0999,0,17,17,7,1,,,,,,,,,,,,,,
,,,,,,,,,,,,other,8,7-9h,2021-12-01_13h24.12.112,bachelor,2021.2.3,MacIntel,60.0024001,,,,,,,,,,ate,,,,,,,,,,,,,,,,,,,,,,,,,,,,,,,,,,,,,,,,,right,0.0547,0,18,18,4,1,,,,,,,,,,,,,,
,,,,,,,,,,,,other,8,7-9h,2021-12-01_13h24.12.112,bachelor,2021.2.3,MacIntel,60.0024001,,,,,,,,,,embassy,,,,,,,,,,,,,,,,,,,,,,,,,,,,,,,,,,,,,,,,,left,0.1169,0,19,19,6,1,,,,,,,,,,,,,,
,,,,,,,,,,,,other,8,7-9h,2021-12-01_13h24.12.112,bachelor,2021.2.3,MacIntel,60.0024001,,,,,,,,,,volcano,,,,,,,,,,,,,,,,,,,,,,,,,,,,,,,,,,,,,,,,,right,0.0485,0,20,20,19,1,,,,,,,,,,,,,,
,,,,,,,,,,,,other,8,7-9h,2021-12-01_13h24.12.112,bachelor,2021.2.3,MacIntel,60.0024001,,,,,,,,,,businessman,,,,,,,,,,,,,,,,,,,,,,,,,,,,,,,,,,,,,,,,,left,0.0645,0,21,21,16,1,,,,,,,,,,,,,,
,,,,,,,,,,,,other,8,7-9h,2021-12-01_13h24.12.112,bachelor,2021.2.3,MacIntel,60.0024001,,,,,,,,,,politician,,,,,,,,,,,,,,,,,,,,,,,,,,,,,,,,,,,,,,,,,right,0.0724,0,22,22,22,1,,,,,,,,,,,,,,
,,,,,,,,,,,,other,8,7-9h,2021-12-01_13h24.12.112,bachelor,2021.2.3,MacIntel,60.0024001,,,,,,,,,,truck,,,,,,,,,,,,,,,,,,,,,,,,,,,,,,,,,,,,,,,,,left,0.0858,0,23,23,17,1,,,,,,,,,,,,,,
,,,,,,,,,,,,other,8,7-9h,2021-12-01_13h24.12.112,bachelor,2021.2.3,MacIntel,60.0024001,,,,,,,,,,thunder,,,,,,,,,,,,,,,,,,,,,,,,,,,,,,,,,,,,,,,,,right,0.0846,0,24,24,21,1,,,,,,,,,,,,,,
,,,,,,,,,,,,other,8,7-9h,2021-12-01_13h24.12.112,bachelor,2021.2.3,MacIntel,60.0024001,,,,,,,,,,mouth,,,,,,,,,,,,,,,,,,,,,,,,,,,,,,,,,,,,,,,,,left,0.0604,0,25,25,24,1,,,,,,,,,,,,,,
,,,,,,,,,,,,other,8,7-9h,2021-12-01_13h24.12.112,bachelor,2021.2.3,MacIntel,60.0024001,,,,,,,,,,bridge,,,,,,,,,,,,,,,,,,,,,,,,,,,,,,,,,,,,,,,,,right,0.0828,0,26,26,14,1,,,,,,,,,,,,,,
,,,,,,,,,,,,other,8,7-9h,2021-12-01_13h24.12.112,bachelor,2021.2.3,MacIntel,60.0024001,,,,,,,,,,jaw,,,,,,,,,,,,,,,,,,,,,,,,,,,,,,,,,,,,,,,,,left,0.0833,0,27,27,0,1,,,,,,,,,,,,,,
,,,,,,,,,,,,other,8,7-9h,2021-12-01_13h24.12.112,bachelor,2021.2.3,MacIntel,60.0024001,,,,,,,,,,,,,,,,,,,,,,,,,,,,,,,,,,,,,,,,,,,,,,,,,,,,,,,,,,space,0.8954,6,0.8342,0,0,0,0,1,I felt excluded during the experiment.,,,,
,,,,,,,,,,,,other,8,7-9h,2021-12-01_13h24.12.112,bachelor,2021.2.3,MacIntel,60.0024001,,,,,,,,,,,,,,,,,,,,,,,,,,,,,,,,,,,,,,,,,,,,,,,,,,,,,,,,,,,,6,0.1129,0,1,1,1,1,Negative feedback showed me that I had lower task competencies than the other participants.,,,,
,,,,,,,,,,,,other,8,7-9h,2021-12-01_13h24.12.112,bachelor,2021.2.3,MacIntel,60.0024001,,,,,,,,,,,,,,,,,,,,,,,,,,,,,,,,,,,,,,,,,,,,,,,,,,,,,,,,,,,,6,0.0992,0,2,2,3,1,I felt stressed during the experiment.,,,,
,,,,,,,,,,,,other,8,7-9h,2021-12-01_13h24.12.112,bachelor,2021.2.3,MacIntel,60.0024001,,,,,,,,,,,,,,,,,,,,,,,,,,,,,,,,,,,,,,,,,,,,,,,,,,,,,,,,,,,,6,0.1121,0,3,3,2,1,I felt alone during the experiment.,,,,
,,,,,,,,,,,,other,8,7-9h,2021-12-01_13h24.12.112,bachelor,2021.2.3,MacIntel,60.0024001,,,,,,,,,,,,,,,,,,,,,,,,,,,,,,,,,,,,,,,,,,,,,,,,,,,,,,,,,,,,,,,,,,,,space,1.0518,space,0.5935
