key_resp_17.keys,key_resp_17.rt,key_resp_13.keys,key_resp_13.rt,trials_5.thisRepN,trials_5.thisTrialN,trials_5.thisN,trials_5.thisIndex,trials_5.ran,Text,Condition,participant,Gender*,Age*,Estimated hours since last sleep*,date,expName,psychopyVersion,OS,frameRate,fbclid,key_resp_2.keys,key_resp_2.rt,key_resp_11.keys,key_resp_11.rt,trials_6.thisRepN,trials_6.thisTrialN,trials_6.thisN,trials_6.thisIndex,trials_6.ran,Word,key_resp_3.keys,key_resp_3.rt,key_resp_9.keys,trials_2.thisRepN,trials_2.thisTrialN,trials_2.thisN,trials_2.thisIndex,trials_2.ran,Stimuli,key_resp_9.rt,keyrespp.keys,keyrespp.rt,key_resp_4.keys,trials.thisRepN,trials.thisTrialN,trials.thisN,trials.thisIndex,trials.ran,Response,Congr,RightAns,key_resp_4.rt,key_resp_8.keys,key_resp_8.rt,key_resp_10.keys,trials_4.thisRepN,trials_4.thisTrialN,trials_4.thisN,trials_4.thisIndex,trials_4.ran,key_resp_10.rt,key_resp_14.keys,key_resp_14.rt,trials_7.thisRepN,trials_7.thisTrialN,trials_7.thisN,trials_7.thisIndex,trials_7.ran,key_resp_5.keys,key_resp_5.rt,key_resp_12.keys,key_resp_12.rt,trials_3.thisRepN,trials_3.thisTrialN,trials_3.thisN,trials_3.thisIndex,trials_3.ran,key_resp_6.keys,key_resp_6.rt,key_resp_15.keys,key_resp_15.rt,socialexc.thisRepN,socialexc.thisTrialN,socialexc.thisN,socialexc.thisIndex,socialexc.ran,Question,key_resp_7.keys,key_resp_7.rt,key_resp_16.keys,key_resp_16.rt
y,27.5532,space,3.5661,0,0,0,0,1,"
Please complete all tasks. It will take no more than 5-10 minutes.

Press any key to start the experiment",0,,woman,28,10-12h,2021-12-12_22h34.04.519,bachelor,2021.2.3,MacIntel,59.99880002,IwAR1GM1Hb5NvVLdUtLLXx6_cp4lZKlg5jemhIrj8nJ5r0UGBGy7rKYQAj_Us,,,,,,,,,,,,,,,,,,,,,,,,,,,,,,,,,,,,,,,,,,,,,,,,,,,,,,,,,,,,,,,,,,,,,,,
,,,,,,,,,,,,woman,28,10-12h,2021-12-12_22h34.04.519,bachelor,2021.2.3,MacIntel,59.99880002,IwAR1GM1Hb5NvVLdUtLLXx6_cp4lZKlg5jemhIrj8nJ5r0UGBGy7rKYQAj_Us,space,21.4197,left,2.6427,0,0,0,1,1,ricochet,,,,,,,,,,,,,,,,,,,,,,,,,,,,,,,,,,,,,,,,,,,,,,,,,,,,,,,,,,,,,
,,,,,,,,,,,,woman,28,10-12h,2021-12-12_22h34.04.519,bachelor,2021.2.3,MacIntel,59.99880002,IwAR1GM1Hb5NvVLdUtLLXx6_cp4lZKlg5jemhIrj8nJ5r0UGBGy7rKYQAj_Us,,,right,2.7129,0,1,1,15,1,minister,,,,,,,,,,,,,,,,,,,,,,,,,,,,,,,,,,,,,,,,,,,,,,,,,,,,,,,,,,,,,
,,,,,,,,,,,,woman,28,10-12h,2021-12-12_22h34.04.519,bachelor,2021.2.3,MacIntel,59.99880002,IwAR1GM1Hb5NvVLdUtLLXx6_cp4lZKlg5jemhIrj8nJ5r0UGBGy7rKYQAj_Us,,,right,4.8209,0,2,2,16,1,gunshot,,,,,,,,,,,,,,,,,,,,,,,,,,,,,,,,,,,,,,,,,,,,,,,,,,,,,,,,,,,,,
,,,,,,,,,,,,woman,28,10-12h,2021-12-12_22h34.04.519,bachelor,2021.2.3,MacIntel,59.99880002,IwAR1GM1Hb5NvVLdUtLLXx6_cp4lZKlg5jemhIrj8nJ5r0UGBGy7rKYQAj_Us,,,right,3.5028,0,3,3,25,1,soccer,,,,,,,,,,,,,,,,,,,,,,,,,,,,,,,,,,,,,,,,,,,,,,,,,,,,,,,,,,,,,
,,,,,,,,,,,,woman,28,10-12h,2021-12-12_22h34.04.519,bachelor,2021.2.3,MacIntel,59.99880002,IwAR1GM1Hb5NvVLdUtLLXx6_cp4lZKlg5jemhIrj8nJ5r0UGBGy7rKYQAj_Us,,,left,1.497,0,4,4,8,1,college,,,,,,,,,,,,,,,,,,,,,,,,,,,,,,,,,,,,,,,,,,,,,,,,,,,,,,,,,,,,,
,,,,,,,,,,,,woman,28,10-12h,2021-12-12_22h34.04.519,bachelor,2021.2.3,MacIntel,59.99880002,IwAR1GM1Hb5NvVLdUtLLXx6_cp4lZKlg5jemhIrj8nJ5r0UGBGy7rKYQAj_Us,,,right,2.2531,0,5,5,13,1,belch,,,,,,,,,,,,,,,,,,,,,,,,,,,,,,,,,,,,,,,,,,,,,,,,,,,,,,,,,,,,,
,,,,,,,,,,,,woman,28,10-12h,2021-12-12_22h34.04.519,bachelor,2021.2.3,MacIntel,59.99880002,IwAR1GM1Hb5NvVLdUtLLXx6_cp4lZKlg5jemhIrj8nJ5r0UGBGy7rKYQAj_Us,,,left,1.2474,0,6,6,27,1,applause,,,,,,,,,,,,,,,,,,,,,,,,,,,,,,,,,,,,,,,,,,,,,,,,,,,,,,,,,,,,,
,,,,,,,,,,,,woman,28,10-12h,2021-12-12_22h34.04.519,bachelor,2021.2.3,MacIntel,59.99880002,IwAR1GM1Hb5NvVLdUtLLXx6_cp4lZKlg5jemhIrj8nJ5r0UGBGy7rKYQAj_Us,,,right,2.898,0,7,7,18,1,screech,,,,,,,,,,,,,,,,,,,,,,,,,,,,,,,,,,,,,,,,,,,,,,,,,,,,,,,,,,,,,
,,,,,,,,,,,,woman,28,10-12h,2021-12-12_22h34.04.519,bachelor,2021.2.3,MacIntel,59.99880002,IwAR1GM1Hb5NvVLdUtLLXx6_cp4lZKlg5jemhIrj8nJ5r0UGBGy7rKYQAj_Us,,,right,2.8473,0,8,8,21,1,ambulance,,,,,,,,,,,,,,,,,,,,,,,,,,,,,,,,,,,,,,,,,,,,,,,,,,,,,,,,,,,,,
,,,,,,,,,,,,woman,28,10-12h,2021-12-12_22h34.04.519,bachelor,2021.2.3,MacIntel,59.99880002,IwAR1GM1Hb5NvVLdUtLLXx6_cp4lZKlg5jemhIrj8nJ5r0UGBGy7rKYQAj_Us,,,left,1.1837,0,9,9,2,1,home,,,,,,,,,,,,,,,,,,,,,,,,,,,,,,,,,,,,,,,,,,,,,,,,,,,,,,,,,,,,,
,,,,,,,,,,,,woman,28,10-12h,2021-12-12_22h34.04.519,bachelor,2021.2.3,MacIntel,59.99880002,IwAR1GM1Hb5NvVLdUtLLXx6_cp4lZKlg5jemhIrj8nJ5r0UGBGy7rKYQAj_Us,,,right,1.4154,0,10,10,12,1,forest,,,,,,,,,,,,,,,,,,,,,,,,,,,,,,,,,,,,,,,,,,,,,,,,,,,,,,,,,,,,,
,,,,,,,,,,,,woman,28,10-12h,2021-12-12_22h34.04.519,bachelor,2021.2.3,MacIntel,59.99880002,IwAR1GM1Hb5NvVLdUtLLXx6_cp4lZKlg5jemhIrj8nJ5r0UGBGy7rKYQAj_Us,,,left,1.982,0,11,11,3,1,foot,,,,,,,,,,,,,,,,,,,,,,,,,,,,,,,,,,,,,,,,,,,,,,,,,,,,,,,,,,,,,
,,,,,,,,,,,,woman,28,10-12h,2021-12-12_22h34.04.519,bachelor,2021.2.3,MacIntel,59.99880002,IwAR1GM1Hb5NvVLdUtLLXx6_cp4lZKlg5jemhIrj8nJ5r0UGBGy7rKYQAj_Us,,,right,2.2463,0,12,12,0,1,drank,,,,,,,,,,,,,,,,,,,,,,,,,,,,,,,,,,,,,,,,,,,,,,,,,,,,,,,,,,,,,
,,,,,,,,,,,,woman,28,10-12h,2021-12-12_22h34.04.519,bachelor,2021.2.3,MacIntel,59.99880002,IwAR1GM1Hb5NvVLdUtLLXx6_cp4lZKlg5jemhIrj8nJ5r0UGBGy7rKYQAj_Us,,,left,1.9494,0,13,13,17,1,scientist,,,,,,,,,,,,,,,,,,,,,,,,,,,,,,,,,,,,,,,,,,,,,,,,,,,,,,,,,,,,,
,,,,,,,,,,,,woman,28,10-12h,2021-12-12_22h34.04.519,bachelor,2021.2.3,MacIntel,59.99880002,IwAR1GM1Hb5NvVLdUtLLXx6_cp4lZKlg5jemhIrj8nJ5r0UGBGy7rKYQAj_Us,,,left,1.2795,0,14,14,10,1,church,,,,,,,,,,,,,,,,,,,,,,,,,,,,,,,,,,,,,,,,,,,,,,,,,,,,,,,,,,,,,
,,,,,,,,,,,,woman,28,10-12h,2021-12-12_22h34.04.519,bachelor,2021.2.3,MacIntel,59.99880002,IwAR1GM1Hb5NvVLdUtLLXx6_cp4lZKlg5jemhIrj8nJ5r0UGBGy7rKYQAj_Us,,,left,2.3584,0,15,15,9,1,hot,,,,,,,,,,,,,,,,,,,,,,,,,,,,,,,,,,,,,,,,,,,,,,,,,,,,,,,,,,,,,
,,,,,,,,,,,,woman,28,10-12h,2021-12-12_22h34.04.519,bachelor,2021.2.3,MacIntel,59.99880002,IwAR1GM1Hb5NvVLdUtLLXx6_cp4lZKlg5jemhIrj8nJ5r0UGBGy7rKYQAj_Us,,,right,2.1859,0,16,16,7,1,cough,,,,,,,,,,,,,,,,,,,,,,,,,,,,,,,,,,,,,,,,,,,,,,,,,,,,,,,,,,,,,
,,,,,,,,,,,,woman,28,10-12h,2021-12-12_22h34.04.519,bachelor,2021.2.3,MacIntel,59.99880002,IwAR1GM1Hb5NvVLdUtLLXx6_cp4lZKlg5jemhIrj8nJ5r0UGBGy7rKYQAj_Us,,,right,1.216,0,17,17,4,1,hospital,,,,,,,,,,,,,,,,,,,,,,,,,,,,,,,,,,,,,,,,,,,,,,,,,,,,,,,,,,,,,
,,,,,,,,,,,,woman,28,10-12h,2021-12-12_22h34.04.519,bachelor,2021.2.3,MacIntel,59.99880002,IwAR1GM1Hb5NvVLdUtLLXx6_cp4lZKlg5jemhIrj8nJ5r0UGBGy7rKYQAj_Us,,,left,3.3053,0,18,18,6,1,airport,,,,,,,,,,,,,,,,,,,,,,,,,,,,,,,,,,,,,,,,,,,,,,,,,,,,,,,,,,,,,
,,,,,,,,,,,,woman,28,10-12h,2021-12-12_22h34.04.519,bachelor,2021.2.3,MacIntel,59.99880002,IwAR1GM1Hb5NvVLdUtLLXx6_cp4lZKlg5jemhIrj8nJ5r0UGBGy7rKYQAj_Us,,,left,1.0005,0,19,19,24,1,lip,,,,,,,,,,,,,,,,,,,,,,,,,,,,,,,,,,,,,,,,,,,,,,,,,,,,,,,,,,,,,
,,,,,,,,,,,,woman,28,10-12h,2021-12-12_22h34.04.519,bachelor,2021.2.3,MacIntel,59.99880002,IwAR1GM1Hb5NvVLdUtLLXx6_cp4lZKlg5jemhIrj8nJ5r0UGBGy7rKYQAj_Us,,,right,1.5341,0,20,20,5,1,cold,,,,,,,,,,,,,,,,,,,,,,,,,,,,,,,,,,,,,,,,,,,,,,,,,,,,,,,,,,,,,
,,,,,,,,,,,,woman,28,10-12h,2021-12-12_22h34.04.519,bachelor,2021.2.3,MacIntel,59.99880002,IwAR1GM1Hb5NvVLdUtLLXx6_cp4lZKlg5jemhIrj8nJ5r0UGBGy7rKYQAj_Us,,,left,0.9849,0,21,21,26,1,eye,,,,,,,,,,,,,,,,,,,,,,,,,,,,,,,,,,,,,,,,,,,,,,,,,,,,,,,,,,,,,
,,,,,,,,,,,,woman,28,10-12h,2021-12-12_22h34.04.519,bachelor,2021.2.3,MacIntel,59.99880002,IwAR1GM1Hb5NvVLdUtLLXx6_cp4lZKlg5jemhIrj8nJ5r0UGBGy7rKYQAj_Us,,,left,0.7794,0,22,22,22,1,woman,,,,,,,,,,,,,,,,,,,,,,,,,,,,,,,,,,,,,,,,,,,,,,,,,,,,,,,,,,,,,
,,,,,,,,,,,,woman,28,10-12h,2021-12-12_22h34.04.519,bachelor,2021.2.3,MacIntel,59.99880002,IwAR1GM1Hb5NvVLdUtLLXx6_cp4lZKlg5jemhIrj8nJ5r0UGBGy7rKYQAj_Us,,,left,1.9714,0,23,23,20,1,journalist,,,,,,,,,,,,,,,,,,,,,,,,,,,,,,,,,,,,,,,,,,,,,,,,,,,,,,,,,,,,,
,,,,,,,,,,,,woman,28,10-12h,2021-12-12_22h34.04.519,bachelor,2021.2.3,MacIntel,59.99880002,IwAR1GM1Hb5NvVLdUtLLXx6_cp4lZKlg5jemhIrj8nJ5r0UGBGy7rKYQAj_Us,,,right,0.9492,0,24,24,23,1,fee,,,,,,,,,,,,,,,,,,,,,,,,,,,,,,,,,,,,,,,,,,,,,,,,,,,,,,,,,,,,,
,,,,,,,,,,,,woman,28,10-12h,2021-12-12_22h34.04.519,bachelor,2021.2.3,MacIntel,59.99880002,IwAR1GM1Hb5NvVLdUtLLXx6_cp4lZKlg5jemhIrj8nJ5r0UGBGy7rKYQAj_Us,,,right,0.9813,0,25,25,11,1,gasp,,,,,,,,,,,,,,,,,,,,,,,,,,,,,,,,,,,,,,,,,,,,,,,,,,,,,,,,,,,,,
,,,,,,,,,,,,woman,28,10-12h,2021-12-12_22h34.04.519,bachelor,2021.2.3,MacIntel,59.99880002,IwAR1GM1Hb5NvVLdUtLLXx6_cp4lZKlg5jemhIrj8nJ5r0UGBGy7rKYQAj_Us,,,left,1.0142,0,26,26,19,1,wonder,,,,,,,,,,,,,,,,,,,,,,,,,,,,,,,,,,,,,,,,,,,,,,,,,,,,,,,,,,,,,
,,,,,,,,,,,,woman,28,10-12h,2021-12-12_22h34.04.519,bachelor,2021.2.3,MacIntel,59.99880002,IwAR1GM1Hb5NvVLdUtLLXx6_cp4lZKlg5jemhIrj8nJ5r0UGBGy7rKYQAj_Us,,,right,1.0813,0,27,27,14,1,tourist,,,,,,,,,,,,,,,,,,,,,,,,,,,,,,,,,,,,,,,,,,,,,,,,,,,,,,,,,,,,,
,,,,,,,,,,,,woman,28,10-12h,2021-12-12_22h34.04.519,bachelor,2021.2.3,MacIntel,59.99880002,IwAR1GM1Hb5NvVLdUtLLXx6_cp4lZKlg5jemhIrj8nJ5r0UGBGy7rKYQAj_Us,,,,,,,,,,,space,23.2683,,0,0,0,2,1,10 - 5 - 16 = 21?,,,,,,,,,,,,,,,,,,,,,,,,,,,,,,,,,,,,,,,,,,,,,,,,,,,,
,,,,,,,,,,,,woman,28,10-12h,2021-12-12_22h34.04.519,bachelor,2021.2.3,MacIntel,59.99880002,IwAR1GM1Hb5NvVLdUtLLXx6_cp4lZKlg5jemhIrj8nJ5r0UGBGy7rKYQAj_Us,,,,,,,,,,,,,right,0,1,1,1,1,10 - 18 + 1 = -9?,0.2391,,,,,,,,,,,,,,,,,,,,,,,,,,,,,,,,,,,,,,,,,,,,,,,,,,,
,,,,,,,,,,,,woman,28,10-12h,2021-12-12_22h34.04.519,bachelor,2021.2.3,MacIntel,59.99880002,IwAR1GM1Hb5NvVLdUtLLXx6_cp4lZKlg5jemhIrj8nJ5r0UGBGy7rKYQAj_Us,,,,,,,,,,,,,left,0,2,2,3,1,2 + 20 x 4 = 82?,4.2988,,,,,,,,,,,,,,,,,,,,,,,,,,,,,,,,,,,,,,,,,,,,,,,,,,,
,,,,,,,,,,,,woman,28,10-12h,2021-12-12_22h34.04.519,bachelor,2021.2.3,MacIntel,59.99880002,IwAR1GM1Hb5NvVLdUtLLXx6_cp4lZKlg5jemhIrj8nJ5r0UGBGy7rKYQAj_Us,,,,,,,,,,,,,right,0,3,3,4,1,11 + 3 - 7 = 8?,4.2337,,,,,,,,,,,,,,,,,,,,,,,,,,,,,,,,,,,,,,,,,,,,,,,,,,,
,,,,,,,,,,,,woman,28,10-12h,2021-12-12_22h34.04.519,bachelor,2021.2.3,MacIntel,59.99880002,IwAR1GM1Hb5NvVLdUtLLXx6_cp4lZKlg5jemhIrj8nJ5r0UGBGy7rKYQAj_Us,,,,,,,,,,,,,left,0,4,4,0,1,5 x 5 - 10 = 22?,2.9252,,,,,,,,,,,,,,,,,,,,,,,,,,,,,,,,,,,,,,,,,,,,,,,,,,,
,,,,,,,,,,,,woman,28,10-12h,2021-12-12_22h34.04.519,bachelor,2021.2.3,MacIntel,59.99880002,IwAR1GM1Hb5NvVLdUtLLXx6_cp4lZKlg5jemhIrj8nJ5r0UGBGy7rKYQAj_Us,,,,,,,,,,,,,,,,,,,72 + 17 x 3 = 121?,,space,8.2584,,0,0,0,2,1,RESPONSE RECORDED,0,right,,,,,,,,,,,,,,,,,,,,,,,,,,,,,,,,,,,,,,,,
,,,,,,,,,,,,woman,28,10-12h,2021-12-12_22h34.04.519,bachelor,2021.2.3,MacIntel,59.99880002,IwAR1GM1Hb5NvVLdUtLLXx6_cp4lZKlg5jemhIrj8nJ5r0UGBGy7rKYQAj_Us,,,,,,,,,,,,,,,,,,,35 - 65 - 20 = - 55?,,,,right,0,1,1,10,1,RESPONSE RECORDED,0,right,4.6355,,,,,,,,,,,,,,,,,,,,,,,,,,,,,,,,,,,,,,,
,,,,,,,,,,,,woman,28,10-12h,2021-12-12_22h34.04.519,bachelor,2021.2.3,MacIntel,59.99880002,IwAR1GM1Hb5NvVLdUtLLXx6_cp4lZKlg5jemhIrj8nJ5r0UGBGy7rKYQAj_Us,,,,,,,,,,,,,,,,,,,14 x 2 - 3 = 25?,,,,left,0,2,2,13,1,TRY HARDER,1,left,4.0194,,,,,,,,,,,,,,,,,,,,,,,,,,,,,,,,,,,,,,,
,,,,,,,,,,,,woman,28,10-12h,2021-12-12_22h34.04.519,bachelor,2021.2.3,MacIntel,59.99880002,IwAR1GM1Hb5NvVLdUtLLXx6_cp4lZKlg5jemhIrj8nJ5r0UGBGy7rKYQAj_Us,,,,,,,,,,,,,,,,,,,7 x 11 - 21 = 56?,,,,left,0,3,3,9,1,SPEED UP,1,left,3.3155,,,,,,,,,,,,,,,,,,,,,,,,,,,,,,,,,,,,,,,
,,,,,,,,,,,,woman,28,10-12h,2021-12-12_22h34.04.519,bachelor,2021.2.3,MacIntel,59.99880002,IwAR1GM1Hb5NvVLdUtLLXx6_cp4lZKlg5jemhIrj8nJ5r0UGBGy7rKYQAj_Us,,,,,,,,,,,,,,,,,,,53 + 13 x 7 = -150?,,,,right,0,4,4,12,1,YOU’RE NOT TRYING HARD ENOUGH,0,right,3.8748,,,,,,,,,,,,,,,,,,,,,,,,,,,,,,,,,,,,,,,
,,,,,,,,,,,,woman,28,10-12h,2021-12-12_22h34.04.519,bachelor,2021.2.3,MacIntel,59.99880002,IwAR1GM1Hb5NvVLdUtLLXx6_cp4lZKlg5jemhIrj8nJ5r0UGBGy7rKYQAj_Us,,,,,,,,,,,,,,,,,,,47 + 13 - 7 = 53?,,,,,0,5,5,11,1,RESPONSE RECORDED,1,left,,,,,,,,,,,,,,,,,,,,,,,,,,,,,,,,,,,,,,,,
,,,,,,,,,,,,woman,28,10-12h,2021-12-12_22h34.04.519,bachelor,2021.2.3,MacIntel,59.99880002,IwAR1GM1Hb5NvVLdUtLLXx6_cp4lZKlg5jemhIrj8nJ5r0UGBGy7rKYQAj_Us,,,,,,,,,,,,,,,,,,,14 x 2 + 10 = 38?,,,,left,0,6,6,4,1,CONCENTRATE,1,left,4.5866,,,,,,,,,,,,,,,,,,,,,,,,,,,,,,,,,,,,,,,
,,,,,,,,,,,,woman,28,10-12h,2021-12-12_22h34.04.519,bachelor,2021.2.3,MacIntel,59.99880002,IwAR1GM1Hb5NvVLdUtLLXx6_cp4lZKlg5jemhIrj8nJ5r0UGBGy7rKYQAj_Us,,,,,,,,,,,,,,,,,,,54 + 60 - 1 = 113?,,,,right,0,7,7,5,1,PAY ATTENTION,1,left,2.7534,,,,,,,,,,,,,,,,,,,,,,,,,,,,,,,,,,,,,,,
,,,,,,,,,,,,woman,28,10-12h,2021-12-12_22h34.04.519,bachelor,2021.2.3,MacIntel,59.99880002,IwAR1GM1Hb5NvVLdUtLLXx6_cp4lZKlg5jemhIrj8nJ5r0UGBGy7rKYQAj_Us,,,,,,,,,,,,,,,,,,,50 x 3 + 12 = 147?,,,,left,0,8,8,1,1,SPEED UP,1,left,4.0622,,,,,,,,,,,,,,,,,,,,,,,,,,,,,,,,,,,,,,,
,,,,,,,,,,,,woman,28,10-12h,2021-12-12_22h34.04.519,bachelor,2021.2.3,MacIntel,59.99880002,IwAR1GM1Hb5NvVLdUtLLXx6_cp4lZKlg5jemhIrj8nJ5r0UGBGy7rKYQAj_Us,,,,,,,,,,,,,,,,,,,6 - 58 + 11 = -41?,,,,right,0,9,9,3,1,RESPONSE RECORDED,1,left,3.9024,,,,,,,,,,,,,,,,,,,,,,,,,,,,,,,,,,,,,,,
,,,,,,,,,,,,woman,28,10-12h,2021-12-12_22h34.04.519,bachelor,2021.2.3,MacIntel,59.99880002,IwAR1GM1Hb5NvVLdUtLLXx6_cp4lZKlg5jemhIrj8nJ5r0UGBGy7rKYQAj_Us,,,,,,,,,,,,,,,,,,,2 - 15 + 39 = 27?,,,,,0,10,10,0,1,RESPONSE RECORDED,0,right,,,,,,,,,,,,,,,,,,,,,,,,,,,,,,,,,,,,,,,,
,,,,,,,,,,,,woman,28,10-12h,2021-12-12_22h34.04.519,bachelor,2021.2.3,MacIntel,59.99880002,IwAR1GM1Hb5NvVLdUtLLXx6_cp4lZKlg5jemhIrj8nJ5r0UGBGy7rKYQAj_Us,,,,,,,,,,,,,,,,,,,54 - 40 x -2 = - 27?,,,,right,0,11,11,8,1,RESPONSE RECORDED,0,right,4.7832,,,,,,,,,,,,,,,,,,,,,,,,,,,,,,,,,,,,,,,
,,,,,,,,,,,,woman,28,10-12h,2021-12-12_22h34.04.519,bachelor,2021.2.3,MacIntel,59.99880002,IwAR1GM1Hb5NvVLdUtLLXx6_cp4lZKlg5jemhIrj8nJ5r0UGBGy7rKYQAj_Us,,,,,,,,,,,,,,,,,,,2 x 40 + 3 = 84?,,,,right,0,12,12,6,1,RESPONSE RECORDED,0,right,4.1738,,,,,,,,,,,,,,,,,,,,,,,,,,,,,,,,,,,,,,,
,,,,,,,,,,,,woman,28,10-12h,2021-12-12_22h34.04.519,bachelor,2021.2.3,MacIntel,59.99880002,IwAR1GM1Hb5NvVLdUtLLXx6_cp4lZKlg5jemhIrj8nJ5r0UGBGy7rKYQAj_Us,,,,,,,,,,,,,,,,,,,5 x 5 - 29 = -40?,,,,right,0,13,13,7,1,SPEED UP,0,right,4.1024,,,,,,,,,,,,,,,,,,,,,,,,,,,,,,,,,,,,,,,
,,,,,,,,,,,,woman,28,10-12h,2021-12-12_22h34.04.519,bachelor,2021.2.3,MacIntel,59.99880002,IwAR1GM1Hb5NvVLdUtLLXx6_cp4lZKlg5jemhIrj8nJ5r0UGBGy7rKYQAj_Us,,,,,,,,,,,,,,,,,,,17 x 2 - 10 = 24?,,,,,,,,,,RESPONSE RECORDED,1,left,,space,6.3651,,0,0,0,0,1,,,,,,,,,,,,,,,,,,,,,,,,,,,,,,,
,,,,,,,,,,,,woman,28,10-12h,2021-12-12_22h34.04.519,bachelor,2021.2.3,MacIntel,59.99880002,IwAR1GM1Hb5NvVLdUtLLXx6_cp4lZKlg5jemhIrj8nJ5r0UGBGy7rKYQAj_Us,,,,,,,,,,,,,,,,,,,2 x 40 + 10 = 800?,,,,,,,,,,RESPONSE RECORDED,0,right,,,,right,0,1,1,2,1,3.0066,,,,,,,,,,,,,,,,,,,,,,,,,,,,,,
,,,,,,,,,,,,woman,28,10-12h,2021-12-12_22h34.04.519,bachelor,2021.2.3,MacIntel,59.99880002,IwAR1GM1Hb5NvVLdUtLLXx6_cp4lZKlg5jemhIrj8nJ5r0UGBGy7rKYQAj_Us,,,,,,,,,,,,,,,,,,,33 - 15 - 49 = -40?,,,,,,,,,,TRY HARDER,0,right,,,,right,0,2,2,5,1,1.4671,,,,,,,,,,,,,,,,,,,,,,,,,,,,,,
,,,,,,,,,,,,woman,28,10-12h,2021-12-12_22h34.04.519,bachelor,2021.2.3,MacIntel,59.99880002,IwAR1GM1Hb5NvVLdUtLLXx6_cp4lZKlg5jemhIrj8nJ5r0UGBGy7rKYQAj_Us,,,,,,,,,,,,,,,,,,,13 x 3 + 2 = 90?,,,,,,,,,,RESPONSE RECORDED,0,right,,,,left,0,3,3,12,1,2.0444,,,,,,,,,,,,,,,,,,,,,,,,,,,,,,
,,,,,,,,,,,,woman,28,10-12h,2021-12-12_22h34.04.519,bachelor,2021.2.3,MacIntel,59.99880002,IwAR1GM1Hb5NvVLdUtLLXx6_cp4lZKlg5jemhIrj8nJ5r0UGBGy7rKYQAj_Us,,,,,,,,,,,,,,,,,,,55 - 66 + 14 = 3?,,,,,,,,,,RESPONSE RECORDED,1,left,,,,right,0,4,4,13,1,2.5332,,,,,,,,,,,,,,,,,,,,,,,,,,,,,,
,,,,,,,,,,,,woman,28,10-12h,2021-12-12_22h34.04.519,bachelor,2021.2.3,MacIntel,59.99880002,IwAR1GM1Hb5NvVLdUtLLXx6_cp4lZKlg5jemhIrj8nJ5r0UGBGy7rKYQAj_Us,,,,,,,,,,,,,,,,,,,7 x 11 - 21 = 56?,,,,,,,,,,GO FASTER,1,left,,,,right,0,5,5,9,1,3.0514,,,,,,,,,,,,,,,,,,,,,,,,,,,,,,
,,,,,,,,,,,,woman,28,10-12h,2021-12-12_22h34.04.519,bachelor,2021.2.3,MacIntel,59.99880002,IwAR1GM1Hb5NvVLdUtLLXx6_cp4lZKlg5jemhIrj8nJ5r0UGBGy7rKYQAj_Us,,,,,,,,,,,,,,,,,,,10 x 11 + 45 = 155?,,,,,,,,,,RESPONSE RECORDED,1,left,,,,left,0,6,6,10,1,1.5615,,,,,,,,,,,,,,,,,,,,,,,,,,,,,,
,,,,,,,,,,,,woman,28,10-12h,2021-12-12_22h34.04.519,bachelor,2021.2.3,MacIntel,59.99880002,IwAR1GM1Hb5NvVLdUtLLXx6_cp4lZKlg5jemhIrj8nJ5r0UGBGy7rKYQAj_Us,,,,,,,,,,,,,,,,,,,7 - 8 - 9 = -11?,,,,,,,,,,SPEED UP,0,right,,,,right,0,7,7,7,1,0.8827,,,,,,,,,,,,,,,,,,,,,,,,,,,,,,
,,,,,,,,,,,,woman,28,10-12h,2021-12-12_22h34.04.519,bachelor,2021.2.3,MacIntel,59.99880002,IwAR1GM1Hb5NvVLdUtLLXx6_cp4lZKlg5jemhIrj8nJ5r0UGBGy7rKYQAj_Us,,,,,,,,,,,,,,,,,,,20 x 2 - 77 = 24?,,,,,,,,,,YOU NEED TO CONCENTRATE,0,right,,,,right,0,8,8,11,1,3.0249,,,,,,,,,,,,,,,,,,,,,,,,,,,,,,
,,,,,,,,,,,,woman,28,10-12h,2021-12-12_22h34.04.519,bachelor,2021.2.3,MacIntel,59.99880002,IwAR1GM1Hb5NvVLdUtLLXx6_cp4lZKlg5jemhIrj8nJ5r0UGBGy7rKYQAj_Us,,,,,,,,,,,,,,,,,,,56 - 6 x 3 = 33?,,,,,,,,,,SPEED UP,0,right,,,,left,0,9,9,1,1,1.1548,,,,,,,,,,,,,,,,,,,,,,,,,,,,,,
,,,,,,,,,,,,woman,28,10-12h,2021-12-12_22h34.04.519,bachelor,2021.2.3,MacIntel,59.99880002,IwAR1GM1Hb5NvVLdUtLLXx6_cp4lZKlg5jemhIrj8nJ5r0UGBGy7rKYQAj_Us,,,,,,,,,,,,,,,,,,,12 + 10 x 4 = 70?,,,,,,,,,,RESPONSE RECORDED,0,right,,,,right,0,10,10,6,1,2.7819,,,,,,,,,,,,,,,,,,,,,,,,,,,,,,
,,,,,,,,,,,,woman,28,10-12h,2021-12-12_22h34.04.519,bachelor,2021.2.3,MacIntel,59.99880002,IwAR1GM1Hb5NvVLdUtLLXx6_cp4lZKlg5jemhIrj8nJ5r0UGBGy7rKYQAj_Us,,,,,,,,,,,,,,,,,,,7 + 46 + 16 = 67?,,,,,,,,,,RESPONSE RECORDED,0,right,,,,right,0,11,11,4,1,1.402,,,,,,,,,,,,,,,,,,,,,,,,,,,,,,
,,,,,,,,,,,,woman,28,10-12h,2021-12-12_22h34.04.519,bachelor,2021.2.3,MacIntel,59.99880002,IwAR1GM1Hb5NvVLdUtLLXx6_cp4lZKlg5jemhIrj8nJ5r0UGBGy7rKYQAj_Us,,,,,,,,,,,,,,,,,,,62 - 15 x 3 = 5?,,,,,,,,,,PAY ATTENTION,0,right,,,,left,0,12,12,8,1,0.7525,,,,,,,,,,,,,,,,,,,,,,,,,,,,,,
,,,,,,,,,,,,woman,28,10-12h,2021-12-12_22h34.04.519,bachelor,2021.2.3,MacIntel,59.99880002,IwAR1GM1Hb5NvVLdUtLLXx6_cp4lZKlg5jemhIrj8nJ5r0UGBGy7rKYQAj_Us,,,,,,,,,,,,,,,,,,,6 - 13 + 4 = -3?,,,,,,,,,,CONCENTRATE,1,left,,,,right,0,13,13,3,1,1.5647,,,,,,,,,,,,,,,,,,,,,,,,,,,,,,
,,,,,,,,,"You have now completed the mental arithmetic task. You are halfway through the experiment.

Press SPACE to continue",,,woman,28,10-12h,2021-12-12_22h34.04.519,bachelor,2021.2.3,MacIntel,59.99880002,IwAR1GM1Hb5NvVLdUtLLXx6_cp4lZKlg5jemhIrj8nJ5r0UGBGy7rKYQAj_Us,,,,,,,,,,,,,,,,,,,,,,,,,,,,,,,,,,,,,,,,,,space,5.6927,0,0,0,0,1,,,,,,,,,,,,,,,,,,,,,,,
,,,,,,,,,,,,woman,28,10-12h,2021-12-12_22h34.04.519,bachelor,2021.2.3,MacIntel,59.99880002,IwAR1GM1Hb5NvVLdUtLLXx6_cp4lZKlg5jemhIrj8nJ5r0UGBGy7rKYQAj_Us,,,,,,,,,,soft,,,,,,,,,,,,,,,,,,,,,,,,,,,,,,,,,,,,,,,space,8.5123,left,1.4181,0,0,0,11,1,,,,,,,,,,,,,,
,,,,,,,,,,,,woman,28,10-12h,2021-12-12_22h34.04.519,bachelor,2021.2.3,MacIntel,59.99880002,IwAR1GM1Hb5NvVLdUtLLXx6_cp4lZKlg5jemhIrj8nJ5r0UGBGy7rKYQAj_Us,,,,,,,,,,truck,,,,,,,,,,,,,,,,,,,,,,,,,,,,,,,,,,,,,,,,,right,1.2679,0,1,1,17,1,,,,,,,,,,,,,,
,,,,,,,,,,,,woman,28,10-12h,2021-12-12_22h34.04.519,bachelor,2021.2.3,MacIntel,59.99880002,IwAR1GM1Hb5NvVLdUtLLXx6_cp4lZKlg5jemhIrj8nJ5r0UGBGy7rKYQAj_Us,,,,,,,,,,businessman,,,,,,,,,,,,,,,,,,,,,,,,,,,,,,,,,,,,,,,,,left,1.6322,0,2,2,16,1,,,,,,,,,,,,,,
,,,,,,,,,,,,woman,28,10-12h,2021-12-12_22h34.04.519,bachelor,2021.2.3,MacIntel,59.99880002,IwAR1GM1Hb5NvVLdUtLLXx6_cp4lZKlg5jemhIrj8nJ5r0UGBGy7rKYQAj_Us,,,,,,,,,,store,,,,,,,,,,,,,,,,,,,,,,,,,,,,,,,,,,,,,,,,,right,1.036,0,3,3,8,1,,,,,,,,,,,,,,
,,,,,,,,,,,,woman,28,10-12h,2021-12-12_22h34.04.519,bachelor,2021.2.3,MacIntel,59.99880002,IwAR1GM1Hb5NvVLdUtLLXx6_cp4lZKlg5jemhIrj8nJ5r0UGBGy7rKYQAj_Us,,,,,,,,,,school,,,,,,,,,,,,,,,,,,,,,,,,,,,,,,,,,,,,,,,,,left,0.9816,0,4,4,10,1,,,,,,,,,,,,,,
,,,,,,,,,,,,woman,28,10-12h,2021-12-12_22h34.04.519,bachelor,2021.2.3,MacIntel,59.99880002,IwAR1GM1Hb5NvVLdUtLLXx6_cp4lZKlg5jemhIrj8nJ5r0UGBGy7rKYQAj_Us,,,,,,,,,,ate,,,,,,,,,,,,,,,,,,,,,,,,,,,,,,,,,,,,,,,,,right,1.8143,0,5,5,4,1,,,,,,,,,,,,,,
,,,,,,,,,,,,woman,28,10-12h,2021-12-12_22h34.04.519,bachelor,2021.2.3,MacIntel,59.99880002,IwAR1GM1Hb5NvVLdUtLLXx6_cp4lZKlg5jemhIrj8nJ5r0UGBGy7rKYQAj_Us,,,,,,,,,,stole,,,,,,,,,,,,,,,,,,,,,,,,,,,,,,,,,,,,,,,,,right,1.0956,0,6,6,3,1,,,,,,,,,,,,,,
,,,,,,,,,,,,woman,28,10-12h,2021-12-12_22h34.04.519,bachelor,2021.2.3,MacIntel,59.99880002,IwAR1GM1Hb5NvVLdUtLLXx6_cp4lZKlg5jemhIrj8nJ5r0UGBGy7rKYQAj_Us,,,,,,,,,,actor,,,,,,,,,,,,,,,,,,,,,,,,,,,,,,,,,,,,,,,,,right,1.4746,0,7,7,23,1,,,,,,,,,,,,,,
,,,,,,,,,,,,woman,28,10-12h,2021-12-12_22h34.04.519,bachelor,2021.2.3,MacIntel,59.99880002,IwAR1GM1Hb5NvVLdUtLLXx6_cp4lZKlg5jemhIrj8nJ5r0UGBGy7rKYQAj_Us,,,,,,,,,,farm,,,,,,,,,,,,,,,,,,,,,,,,,,,,,,,,,,,,,,,,,left,1.2691,0,8,8,12,1,,,,,,,,,,,,,,
,,,,,,,,,,,,woman,28,10-12h,2021-12-12_22h34.04.519,bachelor,2021.2.3,MacIntel,59.99880002,IwAR1GM1Hb5NvVLdUtLLXx6_cp4lZKlg5jemhIrj8nJ5r0UGBGy7rKYQAj_Us,,,,,,,,,,squeal,,,,,,,,,,,,,,,,,,,,,,,,,,,,,,,,,,,,,,,,,right,1.1574,0,9,9,9,1,,,,,,,,,,,,,,
,,,,,,,,,,,,woman,28,10-12h,2021-12-12_22h34.04.519,bachelor,2021.2.3,MacIntel,59.99880002,IwAR1GM1Hb5NvVLdUtLLXx6_cp4lZKlg5jemhIrj8nJ5r0UGBGy7rKYQAj_Us,,,,,,,,,,politician,,,,,,,,,,,,,,,,,,,,,,,,,,,,,,,,,,,,,,,,,right,1.2056,0,10,10,22,1,,,,,,,,,,,,,,
,,,,,,,,,,,,woman,28,10-12h,2021-12-12_22h34.04.519,bachelor,2021.2.3,MacIntel,59.99880002,IwAR1GM1Hb5NvVLdUtLLXx6_cp4lZKlg5jemhIrj8nJ5r0UGBGy7rKYQAj_Us,,,,,,,,,,rocket,,,,,,,,,,,,,,,,,,,,,,,,,,,,,,,,,,,,,,,,,left,1.1034,0,11,11,15,1,,,,,,,,,,,,,,
,,,,,,,,,,,,woman,28,10-12h,2021-12-12_22h34.04.519,bachelor,2021.2.3,MacIntel,59.99880002,IwAR1GM1Hb5NvVLdUtLLXx6_cp4lZKlg5jemhIrj8nJ5r0UGBGy7rKYQAj_Us,,,,,,,,,,delirium,,,,,,,,,,,,,,,,,,,,,,,,,,,,,,,,,,,,,,,,,right,1.5808,0,12,12,7,1,,,,,,,,,,,,,,
,,,,,,,,,,,,woman,28,10-12h,2021-12-12_22h34.04.519,bachelor,2021.2.3,MacIntel,59.99880002,IwAR1GM1Hb5NvVLdUtLLXx6_cp4lZKlg5jemhIrj8nJ5r0UGBGy7rKYQAj_Us,,,,,,,,,,jaw,,,,,,,,,,,,,,,,,,,,,,,,,,,,,,,,,,,,,,,,,right,0.9758,0,13,13,0,1,,,,,,,,,,,,,,
,,,,,,,,,,,,woman,28,10-12h,2021-12-12_22h34.04.519,bachelor,2021.2.3,MacIntel,59.99880002,IwAR1GM1Hb5NvVLdUtLLXx6_cp4lZKlg5jemhIrj8nJ5r0UGBGy7rKYQAj_Us,,,,,,,,,,clang,,,,,,,,,,,,,,,,,,,,,,,,,,,,,,,,,,,,,,,,,right,1.113,0,14,14,13,1,,,,,,,,,,,,,,
,,,,,,,,,,,,woman,28,10-12h,2021-12-12_22h34.04.519,bachelor,2021.2.3,MacIntel,59.99880002,IwAR1GM1Hb5NvVLdUtLLXx6_cp4lZKlg5jemhIrj8nJ5r0UGBGy7rKYQAj_Us,,,,,,,,,,nose,,,,,,,,,,,,,,,,,,,,,,,,,,,,,,,,,,,,,,,,,left,0.9649,0,15,15,26,1,,,,,,,,,,,,,,
,,,,,,,,,,,,woman,28,10-12h,2021-12-12_22h34.04.519,bachelor,2021.2.3,MacIntel,59.99880002,IwAR1GM1Hb5NvVLdUtLLXx6_cp4lZKlg5jemhIrj8nJ5r0UGBGy7rKYQAj_Us,,,,,,,,,,mouth,,,,,,,,,,,,,,,,,,,,,,,,,,,,,,,,,,,,,,,,,left,0.8179,0,16,16,24,1,,,,,,,,,,,,,,
,,,,,,,,,,,,woman,28,10-12h,2021-12-12_22h34.04.519,bachelor,2021.2.3,MacIntel,59.99880002,IwAR1GM1Hb5NvVLdUtLLXx6_cp4lZKlg5jemhIrj8nJ5r0UGBGy7rKYQAj_Us,,,,,,,,,,football,,,,,,,,,,,,,,,,,,,,,,,,,,,,,,,,,,,,,,,,,right,1.0652,0,17,17,27,1,,,,,,,,,,,,,,
,,,,,,,,,,,,woman,28,10-12h,2021-12-12_22h34.04.519,bachelor,2021.2.3,MacIntel,59.99880002,IwAR1GM1Hb5NvVLdUtLLXx6_cp4lZKlg5jemhIrj8nJ5r0UGBGy7rKYQAj_Us,,,,,,,,,,student,,,,,,,,,,,,,,,,,,,,,,,,,,,,,,,,,,,,,,,,,left,0.681,0,18,18,18,1,,,,,,,,,,,,,,
,,,,,,,,,,,,woman,28,10-12h,2021-12-12_22h34.04.519,bachelor,2021.2.3,MacIntel,59.99880002,IwAR1GM1Hb5NvVLdUtLLXx6_cp4lZKlg5jemhIrj8nJ5r0UGBGy7rKYQAj_Us,,,,,,,,,,handshake,,,,,,,,,,,,,,,,,,,,,,,,,,,,,,,,,,,,,,,,,left,1.1848,0,19,19,1,1,,,,,,,,,,,,,,
,,,,,,,,,,,,woman,28,10-12h,2021-12-12_22h34.04.519,bachelor,2021.2.3,MacIntel,59.99880002,IwAR1GM1Hb5NvVLdUtLLXx6_cp4lZKlg5jemhIrj8nJ5r0UGBGy7rKYQAj_Us,,,,,,,,,,leg,,,,,,,,,,,,,,,,,,,,,,,,,,,,,,,,,,,,,,,,,right,0.6299,0,20,20,2,1,,,,,,,,,,,,,,
,,,,,,,,,,,,woman,28,10-12h,2021-12-12_22h34.04.519,bachelor,2021.2.3,MacIntel,59.99880002,IwAR1GM1Hb5NvVLdUtLLXx6_cp4lZKlg5jemhIrj8nJ5r0UGBGy7rKYQAj_Us,,,,,,,,,,diplomat,,,,,,,,,,,,,,,,,,,,,,,,,,,,,,,,,,,,,,,,,right,0.7695,0,21,21,20,1,,,,,,,,,,,,,,
,,,,,,,,,,,,woman,28,10-12h,2021-12-12_22h34.04.519,bachelor,2021.2.3,MacIntel,59.99880002,IwAR1GM1Hb5NvVLdUtLLXx6_cp4lZKlg5jemhIrj8nJ5r0UGBGy7rKYQAj_Us,,,,,,,,,,thunder,,,,,,,,,,,,,,,,,,,,,,,,,,,,,,,,,,,,,,,,,right,0.7993,0,22,22,21,1,,,,,,,,,,,,,,
,,,,,,,,,,,,woman,28,10-12h,2021-12-12_22h34.04.519,bachelor,2021.2.3,MacIntel,59.99880002,IwAR1GM1Hb5NvVLdUtLLXx6_cp4lZKlg5jemhIrj8nJ5r0UGBGy7rKYQAj_Us,,,,,,,,,,embassy,,,,,,,,,,,,,,,,,,,,,,,,,,,,,,,,,,,,,,,,,right,0.8642,0,23,23,6,1,,,,,,,,,,,,,,
,,,,,,,,,,,,woman,28,10-12h,2021-12-12_22h34.04.519,bachelor,2021.2.3,MacIntel,59.99880002,IwAR1GM1Hb5NvVLdUtLLXx6_cp4lZKlg5jemhIrj8nJ5r0UGBGy7rKYQAj_Us,,,,,,,,,,sled,,,,,,,,,,,,,,,,,,,,,,,,,,,,,,,,,,,,,,,,,right,0.898,0,24,24,5,1,,,,,,,,,,,,,,
,,,,,,,,,,,,woman,28,10-12h,2021-12-12_22h34.04.519,bachelor,2021.2.3,MacIntel,59.99880002,IwAR1GM1Hb5NvVLdUtLLXx6_cp4lZKlg5jemhIrj8nJ5r0UGBGy7rKYQAj_Us,,,,,,,,,,shiny,,,,,,,,,,,,,,,,,,,,,,,,,,,,,,,,,,,,,,,,,left,0.8477,0,25,25,25,1,,,,,,,,,,,,,,
,,,,,,,,,,,,woman,28,10-12h,2021-12-12_22h34.04.519,bachelor,2021.2.3,MacIntel,59.99880002,IwAR1GM1Hb5NvVLdUtLLXx6_cp4lZKlg5jemhIrj8nJ5r0UGBGy7rKYQAj_Us,,,,,,,,,,bridge,,,,,,,,,,,,,,,,,,,,,,,,,,,,,,,,,,,,,,,,,left,1.0684,0,26,26,14,1,,,,,,,,,,,,,,
,,,,,,,,,,,,woman,28,10-12h,2021-12-12_22h34.04.519,bachelor,2021.2.3,MacIntel,59.99880002,IwAR1GM1Hb5NvVLdUtLLXx6_cp4lZKlg5jemhIrj8nJ5r0UGBGy7rKYQAj_Us,,,,,,,,,,volcano,,,,,,,,,,,,,,,,,,,,,,,,,,,,,,,,,,,,,,,,,right,1.0016,0,27,27,19,1,,,,,,,,,,,,,,
,,,,,,,,,,,,woman,28,10-12h,2021-12-12_22h34.04.519,bachelor,2021.2.3,MacIntel,59.99880002,IwAR1GM1Hb5NvVLdUtLLXx6_cp4lZKlg5jemhIrj8nJ5r0UGBGy7rKYQAj_Us,,,,,,,,,,,,,,,,,,,,,,,,,,,,,,,,,,,,,,,,,,,,,,,,,,,,,,,,,,space,6.6958,1,4.7118,0,0,0,0,1,I felt excluded during the experiment.,,,,
,,,,,,,,,,,,woman,28,10-12h,2021-12-12_22h34.04.519,bachelor,2021.2.3,MacIntel,59.99880002,IwAR1GM1Hb5NvVLdUtLLXx6_cp4lZKlg5jemhIrj8nJ5r0UGBGy7rKYQAj_Us,,,,,,,,,,,,,,,,,,,,,,,,,,,,,,,,,,,,,,,,,,,,,,,,,,,,,,,,,,,,7,7.2661,0,1,1,1,1,Negative feedback showed me that I had lower task competencies than the other participants.,,,,
,,,,,,,,,,,,woman,28,10-12h,2021-12-12_22h34.04.519,bachelor,2021.2.3,MacIntel,59.99880002,IwAR1GM1Hb5NvVLdUtLLXx6_cp4lZKlg5jemhIrj8nJ5r0UGBGy7rKYQAj_Us,,,,,,,,,,,,,,,,,,,,,,,,,,,,,,,,,,,,,,,,,,,,,,,,,,,,,,,,,,,,7,2.8972,0,2,2,3,1,I felt stressed during the experiment.,,,,
,,,,,,,,,,,,woman,28,10-12h,2021-12-12_22h34.04.519,bachelor,2021.2.3,MacIntel,59.99880002,IwAR1GM1Hb5NvVLdUtLLXx6_cp4lZKlg5jemhIrj8nJ5r0UGBGy7rKYQAj_Us,,,,,,,,,,,,,,,,,,,,,,,,,,,,,,,,,,,,,,,,,,,,,,,,,,,,,,,,,,,,7,4.4204,0,3,3,2,1,I felt alone during the experiment.,,,,
,,,,,,,,,,,,woman,28,10-12h,2021-12-12_22h34.04.519,bachelor,2021.2.3,MacIntel,59.99880002,IwAR1GM1Hb5NvVLdUtLLXx6_cp4lZKlg5jemhIrj8nJ5r0UGBGy7rKYQAj_Us,,,,,,,,,,,,,,,,,,,,,,,,,,,,,,,,,,,,,,,,,,,,,,,,,,,,,,,,,,,,,,,,,,,,space,27.1011,space,8.0704
