key_resp_17.keys,key_resp_17.rt,key_resp_13.keys,key_resp_13.rt,trials_5.thisRepN,trials_5.thisTrialN,trials_5.thisN,trials_5.thisIndex,trials_5.ran,Text,Condition,participant,Gender*,Age*,Estimated hours since last sleep*,date,expName,psychopyVersion,OS,frameRate,key_resp_2.keys,key_resp_2.rt,key_resp_11.keys,key_resp_11.rt,trials_6.thisRepN,trials_6.thisTrialN,trials_6.thisN,trials_6.thisIndex,trials_6.ran,Word,key_resp_3.keys,key_resp_3.rt,key_resp_9.keys,trials_2.thisRepN,trials_2.thisTrialN,trials_2.thisN,trials_2.thisIndex,trials_2.ran,Stimuli,key_resp_9.rt,keyrespp.keys,keyrespp.rt,key_resp_4.keys,key_resp_4.rt,trials.thisRepN,trials.thisTrialN,trials.thisN,trials.thisIndex,trials.ran,Response,Congr,RightAns,key_resp_8.keys,key_resp_8.rt,key_resp_10.keys,key_resp_10.rt,trials_4.thisRepN,trials_4.thisTrialN,trials_4.thisN,trials_4.thisIndex,trials_4.ran,key_resp_14.keys,key_resp_14.rt,trials_7.thisRepN,trials_7.thisTrialN,trials_7.thisN,trials_7.thisIndex,trials_7.ran,key_resp_5.keys,key_resp_5.rt,key_resp_12.keys,key_resp_12.rt,trials_3.thisRepN,trials_3.thisTrialN,trials_3.thisN,trials_3.thisIndex,trials_3.ran,key_resp_6.keys,key_resp_6.rt,key_resp_15.keys,key_resp_15.rt,socialexc.thisRepN,socialexc.thisTrialN,socialexc.thisN,socialexc.thisIndex,socialexc.ran,Question,key_resp_7.keys,key_resp_7.rt,key_resp_16.keys,key_resp_16.rt
y,67.584,space,15.4594,0,0,0,0,1,"Please complete all tasks. It will take no more than 5-10 minutes.

Thank you for contributing to science and deciding to offer your time. Your participation is highly valued. 

Press SPACE to start the experiment",1,,woman,33,7-9h,2021-12-20_14h14.37.099,bachelor,2021.2.3,Win32,59.92329818,,,,,,,,,,,,,,,,,,,,,,,,,,,,,,,,,,,,,,,,,,,,,,,,,,,,,,,,,,,,,,,,,,,,,,,
,,,,,,,,,,,,woman,33,7-9h,2021-12-20_14h14.37.099,bachelor,2021.2.3,Win32,59.92329818,space,47.4364,right,3.9677,0,0,0,16,1,gunshot,,,,,,,,,,,,,,,,,,,,,,,,,,,,,,,,,,,,,,,,,,,,,,,,,,,,,,,,,,,,,
,,,,,,,,,,,,woman,33,7-9h,2021-12-20_14h14.37.099,bachelor,2021.2.3,Win32,59.92329818,,,right,12.4488,0,1,1,25,1,soccer,,,,,,,,,,,,,,,,,,,,,,,,,,,,,,,,,,,,,,,,,,,,,,,,,,,,,,,,,,,,,
,,,,,,,,,,,,woman,33,7-9h,2021-12-20_14h14.37.099,bachelor,2021.2.3,Win32,59.92329818,,,left,1.1634,0,2,2,11,1,gasp,,,,,,,,,,,,,,,,,,,,,,,,,,,,,,,,,,,,,,,,,,,,,,,,,,,,,,,,,,,,,
,,,,,,,,,,,,woman,33,7-9h,2021-12-20_14h14.37.099,bachelor,2021.2.3,Win32,59.92329818,,,right,1.8545,0,3,3,24,1,lip,,,,,,,,,,,,,,,,,,,,,,,,,,,,,,,,,,,,,,,,,,,,,,,,,,,,,,,,,,,,,
,,,,,,,,,,,,woman,33,7-9h,2021-12-20_14h14.37.099,bachelor,2021.2.3,Win32,59.92329818,,,left,0.9531,0,4,4,1,1,ricochet,,,,,,,,,,,,,,,,,,,,,,,,,,,,,,,,,,,,,,,,,,,,,,,,,,,,,,,,,,,,,
,,,,,,,,,,,,woman,33,7-9h,2021-12-20_14h14.37.099,bachelor,2021.2.3,Win32,59.92329818,,,left,3.0409,0,5,5,2,1,home,,,,,,,,,,,,,,,,,,,,,,,,,,,,,,,,,,,,,,,,,,,,,,,,,,,,,,,,,,,,,
,,,,,,,,,,,,woman,33,7-9h,2021-12-20_14h14.37.099,bachelor,2021.2.3,Win32,59.92329818,,,right,2.9557,0,6,6,20,1,journalist,,,,,,,,,,,,,,,,,,,,,,,,,,,,,,,,,,,,,,,,,,,,,,,,,,,,,,,,,,,,,
,,,,,,,,,,,,woman,33,7-9h,2021-12-20_14h14.37.099,bachelor,2021.2.3,Win32,59.92329818,,,right,2.2814,0,7,7,22,1,woman,,,,,,,,,,,,,,,,,,,,,,,,,,,,,,,,,,,,,,,,,,,,,,,,,,,,,,,,,,,,,
,,,,,,,,,,,,woman,33,7-9h,2021-12-20_14h14.37.099,bachelor,2021.2.3,Win32,59.92329818,,,right,3.1212,0,8,8,27,1,applause,,,,,,,,,,,,,,,,,,,,,,,,,,,,,,,,,,,,,,,,,,,,,,,,,,,,,,,,,,,,,
,,,,,,,,,,,,woman,33,7-9h,2021-12-20_14h14.37.099,bachelor,2021.2.3,Win32,59.92329818,,,right,1.4232,0,9,9,0,1,drank,,,,,,,,,,,,,,,,,,,,,,,,,,,,,,,,,,,,,,,,,,,,,,,,,,,,,,,,,,,,,
,,,,,,,,,,,,woman,33,7-9h,2021-12-20_14h14.37.099,bachelor,2021.2.3,Win32,59.92329818,,,left,2.5566,0,10,10,6,1,airport,,,,,,,,,,,,,,,,,,,,,,,,,,,,,,,,,,,,,,,,,,,,,,,,,,,,,,,,,,,,,
,,,,,,,,,,,,woman,33,7-9h,2021-12-20_14h14.37.099,bachelor,2021.2.3,Win32,59.92329818,,,right,3.2254,0,11,11,9,1,hot,,,,,,,,,,,,,,,,,,,,,,,,,,,,,,,,,,,,,,,,,,,,,,,,,,,,,,,,,,,,,
,,,,,,,,,,,,woman,33,7-9h,2021-12-20_14h14.37.099,bachelor,2021.2.3,Win32,59.92329818,,,left,1.8705,0,12,12,3,1,foot,,,,,,,,,,,,,,,,,,,,,,,,,,,,,,,,,,,,,,,,,,,,,,,,,,,,,,,,,,,,,
,,,,,,,,,,,,woman,33,7-9h,2021-12-20_14h14.37.099,bachelor,2021.2.3,Win32,59.92329818,,,right,1.5696,0,13,13,17,1,scientist,,,,,,,,,,,,,,,,,,,,,,,,,,,,,,,,,,,,,,,,,,,,,,,,,,,,,,,,,,,,,
,,,,,,,,,,,,woman,33,7-9h,2021-12-20_14h14.37.099,bachelor,2021.2.3,Win32,59.92329818,,,left,1.6201,0,14,14,7,1,cough,,,,,,,,,,,,,,,,,,,,,,,,,,,,,,,,,,,,,,,,,,,,,,,,,,,,,,,,,,,,,
,,,,,,,,,,,,woman,33,7-9h,2021-12-20_14h14.37.099,bachelor,2021.2.3,Win32,59.92329818,,,right,1.6029,0,15,15,13,1,belch,,,,,,,,,,,,,,,,,,,,,,,,,,,,,,,,,,,,,,,,,,,,,,,,,,,,,,,,,,,,,
,,,,,,,,,,,,woman,33,7-9h,2021-12-20_14h14.37.099,bachelor,2021.2.3,Win32,59.92329818,,,right,2.6947,0,16,16,15,1,minister,,,,,,,,,,,,,,,,,,,,,,,,,,,,,,,,,,,,,,,,,,,,,,,,,,,,,,,,,,,,,
,,,,,,,,,,,,woman,33,7-9h,2021-12-20_14h14.37.099,bachelor,2021.2.3,Win32,59.92329818,,,right,2.0878,0,17,17,5,1,cold,,,,,,,,,,,,,,,,,,,,,,,,,,,,,,,,,,,,,,,,,,,,,,,,,,,,,,,,,,,,,
,,,,,,,,,,,,woman,33,7-9h,2021-12-20_14h14.37.099,bachelor,2021.2.3,Win32,59.92329818,,,left,2.4877,0,18,18,4,1,hospital,,,,,,,,,,,,,,,,,,,,,,,,,,,,,,,,,,,,,,,,,,,,,,,,,,,,,,,,,,,,,
,,,,,,,,,,,,woman,33,7-9h,2021-12-20_14h14.37.099,bachelor,2021.2.3,Win32,59.92329818,,,left,1.3029,0,19,19,12,1,forest,,,,,,,,,,,,,,,,,,,,,,,,,,,,,,,,,,,,,,,,,,,,,,,,,,,,,,,,,,,,,
,,,,,,,,,,,,woman,33,7-9h,2021-12-20_14h14.37.099,bachelor,2021.2.3,Win32,59.92329818,,,right,1.7702,0,20,20,18,1,screech,,,,,,,,,,,,,,,,,,,,,,,,,,,,,,,,,,,,,,,,,,,,,,,,,,,,,,,,,,,,,
,,,,,,,,,,,,woman,33,7-9h,2021-12-20_14h14.37.099,bachelor,2021.2.3,Win32,59.92329818,,,left,1.5692,0,21,21,10,1,church,,,,,,,,,,,,,,,,,,,,,,,,,,,,,,,,,,,,,,,,,,,,,,,,,,,,,,,,,,,,,
,,,,,,,,,,,,woman,33,7-9h,2021-12-20_14h14.37.099,bachelor,2021.2.3,Win32,59.92329818,,,right,1.236,0,22,22,14,1,tourist,,,,,,,,,,,,,,,,,,,,,,,,,,,,,,,,,,,,,,,,,,,,,,,,,,,,,,,,,,,,,
,,,,,,,,,,,,woman,33,7-9h,2021-12-20_14h14.37.099,bachelor,2021.2.3,Win32,59.92329818,,,right,1.5194,0,23,23,8,1,college,,,,,,,,,,,,,,,,,,,,,,,,,,,,,,,,,,,,,,,,,,,,,,,,,,,,,,,,,,,,,
,,,,,,,,,,,,woman,33,7-9h,2021-12-20_14h14.37.099,bachelor,2021.2.3,Win32,59.92329818,,,right,2.4107,0,24,24,19,1,wonder,,,,,,,,,,,,,,,,,,,,,,,,,,,,,,,,,,,,,,,,,,,,,,,,,,,,,,,,,,,,,
,,,,,,,,,,,,woman,33,7-9h,2021-12-20_14h14.37.099,bachelor,2021.2.3,Win32,59.92329818,,,left,1.253,0,25,25,26,1,eye,,,,,,,,,,,,,,,,,,,,,,,,,,,,,,,,,,,,,,,,,,,,,,,,,,,,,,,,,,,,,
,,,,,,,,,,,,woman,33,7-9h,2021-12-20_14h14.37.099,bachelor,2021.2.3,Win32,59.92329818,,,right,1.4026,0,26,26,21,1,ambulance,,,,,,,,,,,,,,,,,,,,,,,,,,,,,,,,,,,,,,,,,,,,,,,,,,,,,,,,,,,,,
,,,,,,,,,,,,woman,33,7-9h,2021-12-20_14h14.37.099,bachelor,2021.2.3,Win32,59.92329818,,,right,1.8551,0,27,27,23,1,fee,,,,,,,,,,,,,,,,,,,,,,,,,,,,,,,,,,,,,,,,,,,,,,,,,,,,,,,,,,,,,
,,,,,,,,,,,,woman,33,7-9h,2021-12-20_14h14.37.099,bachelor,2021.2.3,Win32,59.92329818,,,,,,,,,,,space,8.957,,0,0,0,1,1,10 - 18 + 1 = -9?,,,,,,,,,,,,,,,,,,,,,,,,,,,,,,,,,,,,,,,,,,,,,,,,,,,,
,,,,,,,,,,,,woman,33,7-9h,2021-12-20_14h14.37.099,bachelor,2021.2.3,Win32,59.92329818,,,,,,,,,,,,,right,0,1,1,2,1,10 - 5 - 16 = 21?,4.7153,,,,,,,,,,,,,,,,,,,,,,,,,,,,,,,,,,,,,,,,,,,,,,,,,,,
,,,,,,,,,,,,woman,33,7-9h,2021-12-20_14h14.37.099,bachelor,2021.2.3,Win32,59.92329818,,,,,,,,,,,,,right,0,2,2,0,1,5 x 5 - 10 = 22?,3.5517,,,,,,,,,,,,,,,,,,,,,,,,,,,,,,,,,,,,,,,,,,,,,,,,,,,
,,,,,,,,,,,,woman,33,7-9h,2021-12-20_14h14.37.099,bachelor,2021.2.3,Win32,59.92329818,,,,,,,,,,,,,left,0,3,3,3,1,2 + 20 x 4 = 82?,3.8916,,,,,,,,,,,,,,,,,,,,,,,,,,,,,,,,,,,,,,,,,,,,,,,,,,,
,,,,,,,,,,,,woman,33,7-9h,2021-12-20_14h14.37.099,bachelor,2021.2.3,Win32,59.92329818,,,,,,,,,,,,,right,0,4,4,4,1,11 + 3 - 7 = 8?,4.2169,,,,,,,,,,,,,,,,,,,,,,,,,,,,,,,,,,,,,,,,,,,,,,,,,,,
,,,,,,,,,,,,woman,33,7-9h,2021-12-20_14h14.37.099,bachelor,2021.2.3,Win32,59.92329818,,,,,,,,,,,,,,,,,,,53 + 13 x 7 = -150?,,space,5.2787,right,3.1309,0,0,0,12,1,YOU’RE NOT TRYING HARD ENOUGH,0,right,,,,,,,,,,,,,,,,,,,,,,,,,,,,,,,,,,,,,,,
,,,,,,,,,,,,woman,33,7-9h,2021-12-20_14h14.37.099,bachelor,2021.2.3,Win32,59.92329818,,,,,,,,,,,,,,,,,,,47 + 13 - 7 = 53?,,,,left,4.6056,0,1,1,11,1,RESPONSE RECORDED,1,left,,,,,,,,,,,,,,,,,,,,,,,,,,,,,,,,,,,,,,,
,,,,,,,,,,,,woman,33,7-9h,2021-12-20_14h14.37.099,bachelor,2021.2.3,Win32,59.92329818,,,,,,,,,,,,,,,,,,,35 - 65 - 20 = - 55?,,,,right,3.2489,0,2,2,10,1,RESPONSE RECORDED,0,right,,,,,,,,,,,,,,,,,,,,,,,,,,,,,,,,,,,,,,,
,,,,,,,,,,,,woman,33,7-9h,2021-12-20_14h14.37.099,bachelor,2021.2.3,Win32,59.92329818,,,,,,,,,,,,,,,,,,,54 + 60 - 1 = 113?,,,,left,4.7865,0,3,3,5,1,PAY ATTENTION,1,left,,,,,,,,,,,,,,,,,,,,,,,,,,,,,,,,,,,,,,,
,,,,,,,,,,,,woman,33,7-9h,2021-12-20_14h14.37.099,bachelor,2021.2.3,Win32,59.92329818,,,,,,,,,,,,,,,,,,,7 x 11 - 21 = 56?,,,,left,3.041,0,4,4,9,1,SPEED UP,1,left,,,,,,,,,,,,,,,,,,,,,,,,,,,,,,,,,,,,,,,
,,,,,,,,,,,,woman,33,7-9h,2021-12-20_14h14.37.099,bachelor,2021.2.3,Win32,59.92329818,,,,,,,,,,,,,,,,,,,6 - 58 + 11 = -41?,,,,left,4.2675,0,5,5,3,1,RESPONSE RECORDED,1,left,,,,,,,,,,,,,,,,,,,,,,,,,,,,,,,,,,,,,,,
,,,,,,,,,,,,woman,33,7-9h,2021-12-20_14h14.37.099,bachelor,2021.2.3,Win32,59.92329818,,,,,,,,,,,,,,,,,,,5 x 5 - 29 = -40?,,,,right,3.0714,0,6,6,7,1,SPEED UP,0,right,,,,,,,,,,,,,,,,,,,,,,,,,,,,,,,,,,,,,,,
,,,,,,,,,,,,woman,33,7-9h,2021-12-20_14h14.37.099,bachelor,2021.2.3,Win32,59.92329818,,,,,,,,,,,,,,,,,,,2 x 40 + 3 = 84?,,,,right,2.6682,0,7,7,6,1,RESPONSE RECORDED,0,right,,,,,,,,,,,,,,,,,,,,,,,,,,,,,,,,,,,,,,,
,,,,,,,,,,,,woman,33,7-9h,2021-12-20_14h14.37.099,bachelor,2021.2.3,Win32,59.92329818,,,,,,,,,,,,,,,,,,,50 x 3 + 12 = 147?,,,,right,2.415,0,8,8,1,1,SPEED UP,1,left,,,,,,,,,,,,,,,,,,,,,,,,,,,,,,,,,,,,,,,
,,,,,,,,,,,,woman,33,7-9h,2021-12-20_14h14.37.099,bachelor,2021.2.3,Win32,59.92329818,,,,,,,,,,,,,,,,,,,2 - 15 + 39 = 27?,,,,right,3.9339,0,9,9,0,1,RESPONSE RECORDED,0,right,,,,,,,,,,,,,,,,,,,,,,,,,,,,,,,,,,,,,,,
,,,,,,,,,,,,woman,33,7-9h,2021-12-20_14h14.37.099,bachelor,2021.2.3,Win32,59.92329818,,,,,,,,,,,,,,,,,,,54 - 40 x -2 = - 27?,,,,left,4.504,0,10,10,8,1,RESPONSE RECORDED,0,right,,,,,,,,,,,,,,,,,,,,,,,,,,,,,,,,,,,,,,,
,,,,,,,,,,,,woman,33,7-9h,2021-12-20_14h14.37.099,bachelor,2021.2.3,Win32,59.92329818,,,,,,,,,,,,,,,,,,,14 x 2 - 3 = 25?,,,,,,0,11,11,13,1,TRY HARDER,1,left,,,,,,,,,,,,,,,,,,,,,,,,,,,,,,,,,,,,,,,
,,,,,,,,,,,,woman,33,7-9h,2021-12-20_14h14.37.099,bachelor,2021.2.3,Win32,59.92329818,,,,,,,,,,,,,,,,,,,14 x 2 + 10 = 38?,,,,left,2.2507,0,12,12,4,1,CONCENTRATE,1,left,,,,,,,,,,,,,,,,,,,,,,,,,,,,,,,,,,,,,,,
,,,,,,,,,,,,woman,33,7-9h,2021-12-20_14h14.37.099,bachelor,2021.2.3,Win32,59.92329818,,,,,,,,,,,,,,,,,,,72 + 17 x 3 = 121?,,,,left,2.0864,0,13,13,2,1,RESPONSE RECORDED,0,right,,,,,,,,,,,,,,,,,,,,,,,,,,,,,,,,,,,,,,,
,,,,,,,,,,,,woman,33,7-9h,2021-12-20_14h14.37.099,bachelor,2021.2.3,Win32,59.92329818,,,,,,,,,,,,,,,,,,,7 - 8 - 9 = -11?,,,,,,,,,,,SPEED UP,0,right,space,32.7423,right,1.9756,0,0,0,7,1,,,,,,,,,,,,,,,,,,,,,,,,,,,,,,
,,,,,,,,,,,,woman,33,7-9h,2021-12-20_14h14.37.099,bachelor,2021.2.3,Win32,59.92329818,,,,,,,,,,,,,,,,,,,17 x 2 - 10 = 24?,,,,,,,,,,,RESPONSE RECORDED,1,left,,,left,2.3507,0,1,1,0,1,,,,,,,,,,,,,,,,,,,,,,,,,,,,,,
,,,,,,,,,,,,woman,33,7-9h,2021-12-20_14h14.37.099,bachelor,2021.2.3,Win32,59.92329818,,,,,,,,,,,,,,,,,,,62 - 15 x 3 = 5?,,,,,,,,,,,PAY ATTENTION,0,right,,,right,3.0389,0,2,2,8,1,,,,,,,,,,,,,,,,,,,,,,,,,,,,,,
,,,,,,,,,,,,woman,33,7-9h,2021-12-20_14h14.37.099,bachelor,2021.2.3,Win32,59.92329818,,,,,,,,,,,,,,,,,,,2 x 40 + 10 = 800?,,,,,,,,,,,RESPONSE RECORDED,0,right,,,right,1.848,0,3,3,2,1,,,,,,,,,,,,,,,,,,,,,,,,,,,,,,
,,,,,,,,,,,,woman,33,7-9h,2021-12-20_14h14.37.099,bachelor,2021.2.3,Win32,59.92329818,,,,,,,,,,,,,,,,,,,12 + 10 x 4 = 70?,,,,,,,,,,,RESPONSE RECORDED,0,right,,,right,2.1052,0,4,4,6,1,,,,,,,,,,,,,,,,,,,,,,,,,,,,,,
,,,,,,,,,,,,woman,33,7-9h,2021-12-20_14h14.37.099,bachelor,2021.2.3,Win32,59.92329818,,,,,,,,,,,,,,,,,,,6 - 13 + 4 = -3?,,,,,,,,,,,CONCENTRATE,1,left,,,right,2.5164,0,5,5,3,1,,,,,,,,,,,,,,,,,,,,,,,,,,,,,,
,,,,,,,,,,,,woman,33,7-9h,2021-12-20_14h14.37.099,bachelor,2021.2.3,Win32,59.92329818,,,,,,,,,,,,,,,,,,,33 - 15 - 49 = -40?,,,,,,,,,,,TRY HARDER,0,right,,,right,1.6382,0,6,6,5,1,,,,,,,,,,,,,,,,,,,,,,,,,,,,,,
,,,,,,,,,,,,woman,33,7-9h,2021-12-20_14h14.37.099,bachelor,2021.2.3,Win32,59.92329818,,,,,,,,,,,,,,,,,,,55 - 66 + 14 = 3?,,,,,,,,,,,RESPONSE RECORDED,1,left,,,right,3.6167,0,7,7,13,1,,,,,,,,,,,,,,,,,,,,,,,,,,,,,,
,,,,,,,,,,,,woman,33,7-9h,2021-12-20_14h14.37.099,bachelor,2021.2.3,Win32,59.92329818,,,,,,,,,,,,,,,,,,,13 x 3 + 2 = 90?,,,,,,,,,,,RESPONSE RECORDED,0,right,,,right,1.6337,0,8,8,12,1,,,,,,,,,,,,,,,,,,,,,,,,,,,,,,
,,,,,,,,,,,,woman,33,7-9h,2021-12-20_14h14.37.099,bachelor,2021.2.3,Win32,59.92329818,,,,,,,,,,,,,,,,,,,7 + 46 + 16 = 67?,,,,,,,,,,,RESPONSE RECORDED,0,right,,,right,2.5222,0,9,9,4,1,,,,,,,,,,,,,,,,,,,,,,,,,,,,,,
,,,,,,,,,,,,woman,33,7-9h,2021-12-20_14h14.37.099,bachelor,2021.2.3,Win32,59.92329818,,,,,,,,,,,,,,,,,,,20 x 2 - 77 = 24?,,,,,,,,,,,YOU NEED TO CONCENTRATE,0,right,,,right,2.4819,0,10,10,11,1,,,,,,,,,,,,,,,,,,,,,,,,,,,,,,
,,,,,,,,,,,,woman,33,7-9h,2021-12-20_14h14.37.099,bachelor,2021.2.3,Win32,59.92329818,,,,,,,,,,,,,,,,,,,56 - 6 x 3 = 33?,,,,,,,,,,,SPEED UP,0,right,,,left,2.9691,0,11,11,1,1,,,,,,,,,,,,,,,,,,,,,,,,,,,,,,
,,,,,,,,,,,,woman,33,7-9h,2021-12-20_14h14.37.099,bachelor,2021.2.3,Win32,59.92329818,,,,,,,,,,,,,,,,,,,7 x 11 - 21 = 56?,,,,,,,,,,,GO FASTER,1,left,,,left,2.3157,0,12,12,9,1,,,,,,,,,,,,,,,,,,,,,,,,,,,,,,
,,,,,,,,,,,,woman,33,7-9h,2021-12-20_14h14.37.099,bachelor,2021.2.3,Win32,59.92329818,,,,,,,,,,,,,,,,,,,10 x 11 + 45 = 155?,,,,,,,,,,,RESPONSE RECORDED,1,left,,,right,2.7991,0,13,13,10,1,,,,,,,,,,,,,,,,,,,,,,,,,,,,,,
,,,,,,,,,"You have now completed the mental arithmetic task. You are halfway through the experiment.

Thank you for deciding to finish the tasks, it is much appreciated! Your effort is valued.

Press space to continue",,,woman,33,7-9h,2021-12-20_14h14.37.099,bachelor,2021.2.3,Win32,59.92329818,,,,,,,,,,,,,,,,,,,,,,,,,,,,,,,,,,,,,,,,,,space,10.302,0,0,0,0,1,,,,,,,,,,,,,,,,,,,,,,,
,,,,,,,,,,,,woman,33,7-9h,2021-12-20_14h14.37.099,bachelor,2021.2.3,Win32,59.92329818,,,,,,,,,,truck,,,,,,,,,,,,,,,,,,,,,,,,,,,,,,,,,,,,,,,space,5.7736,right,2.5542,0,0,0,17,1,,,,,,,,,,,,,,
,,,,,,,,,,,,woman,33,7-9h,2021-12-20_14h14.37.099,bachelor,2021.2.3,Win32,59.92329818,,,,,,,,,,clang,,,,,,,,,,,,,,,,,,,,,,,,,,,,,,,,,,,,,,,,,right,1.5931,0,1,1,13,1,,,,,,,,,,,,,,
,,,,,,,,,,,,woman,33,7-9h,2021-12-20_14h14.37.099,bachelor,2021.2.3,Win32,59.92329818,,,,,,,,,,shiny,,,,,,,,,,,,,,,,,,,,,,,,,,,,,,,,,,,,,,,,,left,2.2813,0,2,2,25,1,,,,,,,,,,,,,,
,,,,,,,,,,,,woman,33,7-9h,2021-12-20_14h14.37.099,bachelor,2021.2.3,Win32,59.92329818,,,,,,,,,,football,,,,,,,,,,,,,,,,,,,,,,,,,,,,,,,,,,,,,,,,,right,1.2676,0,3,3,27,1,,,,,,,,,,,,,,
,,,,,,,,,,,,woman,33,7-9h,2021-12-20_14h14.37.099,bachelor,2021.2.3,Win32,59.92329818,,,,,,,,,,sled,,,,,,,,,,,,,,,,,,,,,,,,,,,,,,,,,,,,,,,,,right,1.1573,0,4,4,5,1,,,,,,,,,,,,,,
,,,,,,,,,,,,woman,33,7-9h,2021-12-20_14h14.37.099,bachelor,2021.2.3,Win32,59.92329818,,,,,,,,,,ate,,,,,,,,,,,,,,,,,,,,,,,,,,,,,,,,,,,,,,,,,left,1.6129,0,5,5,4,1,,,,,,,,,,,,,,
,,,,,,,,,,,,woman,33,7-9h,2021-12-20_14h14.37.099,bachelor,2021.2.3,Win32,59.92329818,,,,,,,,,,farm,,,,,,,,,,,,,,,,,,,,,,,,,,,,,,,,,,,,,,,,,left,4.4989,0,6,6,12,1,,,,,,,,,,,,,,
,,,,,,,,,,,,woman,33,7-9h,2021-12-20_14h14.37.099,bachelor,2021.2.3,Win32,59.92329818,,,,,,,,,,politician,,,,,,,,,,,,,,,,,,,,,,,,,,,,,,,,,,,,,,,,,right,1.8391,0,7,7,22,1,,,,,,,,,,,,,,
,,,,,,,,,,,,woman,33,7-9h,2021-12-20_14h14.37.099,bachelor,2021.2.3,Win32,59.92329818,,,,,,,,,,businessman,,,,,,,,,,,,,,,,,,,,,,,,,,,,,,,,,,,,,,,,,right,2.2543,0,8,8,16,1,,,,,,,,,,,,,,
,,,,,,,,,,,,woman,33,7-9h,2021-12-20_14h14.37.099,bachelor,2021.2.3,Win32,59.92329818,,,,,,,,,,nose,,,,,,,,,,,,,,,,,,,,,,,,,,,,,,,,,,,,,,,,,left,1.2698,0,9,9,26,1,,,,,,,,,,,,,,
,,,,,,,,,,,,woman,33,7-9h,2021-12-20_14h14.37.099,bachelor,2021.2.3,Win32,59.92329818,,,,,,,,,,store,,,,,,,,,,,,,,,,,,,,,,,,,,,,,,,,,,,,,,,,,left,1.3196,0,10,10,8,1,,,,,,,,,,,,,,
,,,,,,,,,,,,woman,33,7-9h,2021-12-20_14h14.37.099,bachelor,2021.2.3,Win32,59.92329818,,,,,,,,,,school,,,,,,,,,,,,,,,,,,,,,,,,,,,,,,,,,,,,,,,,,left,1.2357,0,11,11,10,1,,,,,,,,,,,,,,
,,,,,,,,,,,,woman,33,7-9h,2021-12-20_14h14.37.099,bachelor,2021.2.3,Win32,59.92329818,,,,,,,,,,mouth,,,,,,,,,,,,,,,,,,,,,,,,,,,,,,,,,,,,,,,,,left,1.1526,0,12,12,24,1,,,,,,,,,,,,,,
,,,,,,,,,,,,woman,33,7-9h,2021-12-20_14h14.37.099,bachelor,2021.2.3,Win32,59.92329818,,,,,,,,,,rocket,,,,,,,,,,,,,,,,,,,,,,,,,,,,,,,,,,,,,,,,,left,1.5036,0,13,13,15,1,,,,,,,,,,,,,,
,,,,,,,,,,,,woman,33,7-9h,2021-12-20_14h14.37.099,bachelor,2021.2.3,Win32,59.92329818,,,,,,,,,,squeal,,,,,,,,,,,,,,,,,,,,,,,,,,,,,,,,,,,,,,,,,right,1.4727,0,14,14,9,1,,,,,,,,,,,,,,
,,,,,,,,,,,,woman,33,7-9h,2021-12-20_14h14.37.099,bachelor,2021.2.3,Win32,59.92329818,,,,,,,,,,diplomat,,,,,,,,,,,,,,,,,,,,,,,,,,,,,,,,,,,,,,,,,right,1.1384,0,15,15,20,1,,,,,,,,,,,,,,
,,,,,,,,,,,,woman,33,7-9h,2021-12-20_14h14.37.099,bachelor,2021.2.3,Win32,59.92329818,,,,,,,,,,delirium,,,,,,,,,,,,,,,,,,,,,,,,,,,,,,,,,,,,,,,,,right,1.0198,0,16,16,7,1,,,,,,,,,,,,,,
,,,,,,,,,,,,woman,33,7-9h,2021-12-20_14h14.37.099,bachelor,2021.2.3,Win32,59.92329818,,,,,,,,,,student,,,,,,,,,,,,,,,,,,,,,,,,,,,,,,,,,,,,,,,,,right,1.4199,0,17,17,18,1,,,,,,,,,,,,,,
,,,,,,,,,,,,woman,33,7-9h,2021-12-20_14h14.37.099,bachelor,2021.2.3,Win32,59.92329818,,,,,,,,,,volcano,,,,,,,,,,,,,,,,,,,,,,,,,,,,,,,,,,,,,,,,,right,0.9529,0,18,18,19,1,,,,,,,,,,,,,,
,,,,,,,,,,,,woman,33,7-9h,2021-12-20_14h14.37.099,bachelor,2021.2.3,Win32,59.92329818,,,,,,,,,,leg,,,,,,,,,,,,,,,,,,,,,,,,,,,,,,,,,,,,,,,,,left,1.2029,0,19,19,2,1,,,,,,,,,,,,,,
,,,,,,,,,,,,woman,33,7-9h,2021-12-20_14h14.37.099,bachelor,2021.2.3,Win32,59.92329818,,,,,,,,,,soft,,,,,,,,,,,,,,,,,,,,,,,,,,,,,,,,,,,,,,,,,right,1.2528,0,20,20,11,1,,,,,,,,,,,,,,
,,,,,,,,,,,,woman,33,7-9h,2021-12-20_14h14.37.099,bachelor,2021.2.3,Win32,59.92329818,,,,,,,,,,actor,,,,,,,,,,,,,,,,,,,,,,,,,,,,,,,,,,,,,,,,,right,1.5353,0,21,21,23,1,,,,,,,,,,,,,,
,,,,,,,,,,,,woman,33,7-9h,2021-12-20_14h14.37.099,bachelor,2021.2.3,Win32,59.92329818,,,,,,,,,,thunder,,,,,,,,,,,,,,,,,,,,,,,,,,,,,,,,,,,,,,,,,right,1.0611,0,22,22,21,1,,,,,,,,,,,,,,
,,,,,,,,,,,,woman,33,7-9h,2021-12-20_14h14.37.099,bachelor,2021.2.3,Win32,59.92329818,,,,,,,,,,embassy,,,,,,,,,,,,,,,,,,,,,,,,,,,,,,,,,,,,,,,,,right,1.9919,0,23,23,6,1,,,,,,,,,,,,,,
,,,,,,,,,,,,woman,33,7-9h,2021-12-20_14h14.37.099,bachelor,2021.2.3,Win32,59.92329818,,,,,,,,,,bridge,,,,,,,,,,,,,,,,,,,,,,,,,,,,,,,,,,,,,,,,,left,1.3089,0,24,24,14,1,,,,,,,,,,,,,,
,,,,,,,,,,,,woman,33,7-9h,2021-12-20_14h14.37.099,bachelor,2021.2.3,Win32,59.92329818,,,,,,,,,,jaw,,,,,,,,,,,,,,,,,,,,,,,,,,,,,,,,,,,,,,,,,right,1.0543,0,25,25,0,1,,,,,,,,,,,,,,
,,,,,,,,,,,,woman,33,7-9h,2021-12-20_14h14.37.099,bachelor,2021.2.3,Win32,59.92329818,,,,,,,,,,stole,,,,,,,,,,,,,,,,,,,,,,,,,,,,,,,,,,,,,,,,,right,1.0738,0,26,26,3,1,,,,,,,,,,,,,,
,,,,,,,,,,,,woman,33,7-9h,2021-12-20_14h14.37.099,bachelor,2021.2.3,Win32,59.92329818,,,,,,,,,,handshake,,,,,,,,,,,,,,,,,,,,,,,,,,,,,,,,,,,,,,,,,right,2.2037,0,27,27,1,1,,,,,,,,,,,,,,
,,,,,,,,,,,,woman,33,7-9h,2021-12-20_14h14.37.099,bachelor,2021.2.3,Win32,59.92329818,,,,,,,,,,,,,,,,,,,,,,,,,,,,,,,,,,,,,,,,,,,,,,,,,,,,,,,,,,space,11.9123,4,18.311,0,0,0,1,1,Negative feedback showed me that I had lower task competencies than the other participants.,,,,
,,,,,,,,,,,,woman,33,7-9h,2021-12-20_14h14.37.099,bachelor,2021.2.3,Win32,59.92329818,,,,,,,,,,,,,,,,,,,,,,,,,,,,,,,,,,,,,,,,,,,,,,,,,,,,,,,,,,,,5,5.7031,0,1,1,0,1,I felt excluded during the experiment.,,,,
,,,,,,,,,,,,woman,33,7-9h,2021-12-20_14h14.37.099,bachelor,2021.2.3,Win32,59.92329818,,,,,,,,,,,,,,,,,,,,,,,,,,,,,,,,,,,,,,,,,,,,,,,,,,,,,,,,,,,,6,3.084,0,2,2,3,1,I felt stressed during the experiment.,,,,
,,,,,,,,,,,,woman,33,7-9h,2021-12-20_14h14.37.099,bachelor,2021.2.3,Win32,59.92329818,,,,,,,,,,,,,,,,,,,,,,,,,,,,,,,,,,,,,,,,,,,,,,,,,,,,,,,,,,,,2,4.403,0,3,3,2,1,I felt alone during the experiment.,,,,
,,,,,,,,,,,,woman,33,7-9h,2021-12-20_14h14.37.099,bachelor,2021.2.3,Win32,59.92329818,,,,,,,,,,,,,,,,,,,,,,,,,,,,,,,,,,,,,,,,,,,,,,,,,,,,,,,,,,,,,,,,,,,,space,6.9492,return,16.9541
