key_resp_17.keys,key_resp_17.rt,key_resp_13.keys,key_resp_13.rt,trials_5.thisRepN,trials_5.thisTrialN,trials_5.thisN,trials_5.thisIndex,trials_5.ran,Text,Condition,participant,Gender*,Age*,Estimated hours since last sleep*,date,expName,psychopyVersion,OS,frameRate,fbclid,key_resp_2.keys,key_resp_2.rt,key_resp_11.keys,key_resp_11.rt,trials_6.thisRepN,trials_6.thisTrialN,trials_6.thisN,trials_6.thisIndex,trials_6.ran,Word,key_resp_3.keys,key_resp_3.rt,key_resp_9.keys,trials_2.thisRepN,trials_2.thisTrialN,trials_2.thisN,trials_2.thisIndex,trials_2.ran,Stimuli,key_resp_9.rt,keyrespp.keys,keyrespp.rt,key_resp_4.keys,key_resp_4.rt,trials.thisRepN,trials.thisTrialN,trials.thisN,trials.thisIndex,trials.ran,Response,Congr,RightAns,key_resp_8.keys,key_resp_8.rt,key_resp_10.keys,key_resp_10.rt,trials_4.thisRepN,trials_4.thisTrialN,trials_4.thisN,trials_4.thisIndex,trials_4.ran,key_resp_14.keys,key_resp_14.rt,trials_7.thisRepN,trials_7.thisTrialN,trials_7.thisN,trials_7.thisIndex,trials_7.ran,key_resp_5.keys,key_resp_5.rt,key_resp_12.keys,key_resp_12.rt,trials_3.thisRepN,trials_3.thisTrialN,trials_3.thisN,trials_3.thisIndex,trials_3.ran,key_resp_6.keys,key_resp_6.rt,key_resp_15.keys,key_resp_15.rt,socialexc.thisRepN,socialexc.thisTrialN,socialexc.thisN,socialexc.thisIndex,socialexc.ran,Question,key_resp_7.keys,key_resp_7.rt,key_resp_16.keys,key_resp_16.rt
y,22.1243,space,6.9279,0,0,0,0,1,"Please complete all tasks. It will take no more than 5-10 minutes.

Thank you for contributing to science and deciding to offer your time. Your participation is highly valued. 

Press SPACE to start the experiment",1,5588,woman,24,4-6h,2021-12-04_12h48.41.699,bachelor,2021.2.3,Win32,59.69080165,IwAR1U9sv7jt6-VzaoK-jLrG5svuDWOPsE4OrmrlNSodsVR0DslIWgxoNfjnw,,,,,,,,,,,,,,,,,,,,,,,,,,,,,,,,,,,,,,,,,,,,,,,,,,,,,,,,,,,,,,,,,,,,,,,
,,,,,,,,,,,5588,woman,24,4-6h,2021-12-04_12h48.41.699,bachelor,2021.2.3,Win32,59.69080165,IwAR1U9sv7jt6-VzaoK-jLrG5svuDWOPsE4OrmrlNSodsVR0DslIWgxoNfjnw,space,16.8258,right,3.8423,0,0,0,18,1,screech,,,,,,,,,,,,,,,,,,,,,,,,,,,,,,,,,,,,,,,,,,,,,,,,,,,,,,,,,,,,,
,,,,,,,,,,,5588,woman,24,4-6h,2021-12-04_12h48.41.699,bachelor,2021.2.3,Win32,59.69080165,IwAR1U9sv7jt6-VzaoK-jLrG5svuDWOPsE4OrmrlNSodsVR0DslIWgxoNfjnw,,,left,1.6101,0,1,1,23,1,fee,,,,,,,,,,,,,,,,,,,,,,,,,,,,,,,,,,,,,,,,,,,,,,,,,,,,,,,,,,,,,
,,,,,,,,,,,5588,woman,24,4-6h,2021-12-04_12h48.41.699,bachelor,2021.2.3,Win32,59.69080165,IwAR1U9sv7jt6-VzaoK-jLrG5svuDWOPsE4OrmrlNSodsVR0DslIWgxoNfjnw,,,left,1.2947,0,2,2,10,1,church,,,,,,,,,,,,,,,,,,,,,,,,,,,,,,,,,,,,,,,,,,,,,,,,,,,,,,,,,,,,,
,,,,,,,,,,,5588,woman,24,4-6h,2021-12-04_12h48.41.699,bachelor,2021.2.3,Win32,59.69080165,IwAR1U9sv7jt6-VzaoK-jLrG5svuDWOPsE4OrmrlNSodsVR0DslIWgxoNfjnw,,,right,2.2543,0,3,3,20,1,journalist,,,,,,,,,,,,,,,,,,,,,,,,,,,,,,,,,,,,,,,,,,,,,,,,,,,,,,,,,,,,,
,,,,,,,,,,,5588,woman,24,4-6h,2021-12-04_12h48.41.699,bachelor,2021.2.3,Win32,59.69080165,IwAR1U9sv7jt6-VzaoK-jLrG5svuDWOPsE4OrmrlNSodsVR0DslIWgxoNfjnw,,,right,3.0549,0,4,4,21,1,ambulance,,,,,,,,,,,,,,,,,,,,,,,,,,,,,,,,,,,,,,,,,,,,,,,,,,,,,,,,,,,,,
,,,,,,,,,,,5588,woman,24,4-6h,2021-12-04_12h48.41.699,bachelor,2021.2.3,Win32,59.69080165,IwAR1U9sv7jt6-VzaoK-jLrG5svuDWOPsE4OrmrlNSodsVR0DslIWgxoNfjnw,,,left,1.1896,0,5,5,17,1,scientist,,,,,,,,,,,,,,,,,,,,,,,,,,,,,,,,,,,,,,,,,,,,,,,,,,,,,,,,,,,,,
,,,,,,,,,,,5588,woman,24,4-6h,2021-12-04_12h48.41.699,bachelor,2021.2.3,Win32,59.69080165,IwAR1U9sv7jt6-VzaoK-jLrG5svuDWOPsE4OrmrlNSodsVR0DslIWgxoNfjnw,,,right,2.1786,0,6,6,27,1,applause,,,,,,,,,,,,,,,,,,,,,,,,,,,,,,,,,,,,,,,,,,,,,,,,,,,,,,,,,,,,,
,,,,,,,,,,,5588,woman,24,4-6h,2021-12-04_12h48.41.699,bachelor,2021.2.3,Win32,59.69080165,IwAR1U9sv7jt6-VzaoK-jLrG5svuDWOPsE4OrmrlNSodsVR0DslIWgxoNfjnw,,,right,2.3266,0,7,7,16,1,gunshot,,,,,,,,,,,,,,,,,,,,,,,,,,,,,,,,,,,,,,,,,,,,,,,,,,,,,,,,,,,,,
,,,,,,,,,,,5588,woman,24,4-6h,2021-12-04_12h48.41.699,bachelor,2021.2.3,Win32,59.69080165,IwAR1U9sv7jt6-VzaoK-jLrG5svuDWOPsE4OrmrlNSodsVR0DslIWgxoNfjnw,,,left,1.3646,0,8,8,19,1,wonder,,,,,,,,,,,,,,,,,,,,,,,,,,,,,,,,,,,,,,,,,,,,,,,,,,,,,,,,,,,,,
,,,,,,,,,,,5588,woman,24,4-6h,2021-12-04_12h48.41.699,bachelor,2021.2.3,Win32,59.69080165,IwAR1U9sv7jt6-VzaoK-jLrG5svuDWOPsE4OrmrlNSodsVR0DslIWgxoNfjnw,,,left,1.3529,0,9,9,8,1,college,,,,,,,,,,,,,,,,,,,,,,,,,,,,,,,,,,,,,,,,,,,,,,,,,,,,,,,,,,,,,
,,,,,,,,,,,5588,woman,24,4-6h,2021-12-04_12h48.41.699,bachelor,2021.2.3,Win32,59.69080165,IwAR1U9sv7jt6-VzaoK-jLrG5svuDWOPsE4OrmrlNSodsVR0DslIWgxoNfjnw,,,left,1.8718,0,10,10,26,1,eye,,,,,,,,,,,,,,,,,,,,,,,,,,,,,,,,,,,,,,,,,,,,,,,,,,,,,,,,,,,,,
,,,,,,,,,,,5588,woman,24,4-6h,2021-12-04_12h48.41.699,bachelor,2021.2.3,Win32,59.69080165,IwAR1U9sv7jt6-VzaoK-jLrG5svuDWOPsE4OrmrlNSodsVR0DslIWgxoNfjnw,,,left,1.6109,0,11,11,7,1,cough,,,,,,,,,,,,,,,,,,,,,,,,,,,,,,,,,,,,,,,,,,,,,,,,,,,,,,,,,,,,,
,,,,,,,,,,,5588,woman,24,4-6h,2021-12-04_12h48.41.699,bachelor,2021.2.3,Win32,59.69080165,IwAR1U9sv7jt6-VzaoK-jLrG5svuDWOPsE4OrmrlNSodsVR0DslIWgxoNfjnw,,,left,1.0127,0,12,12,24,1,lip,,,,,,,,,,,,,,,,,,,,,,,,,,,,,,,,,,,,,,,,,,,,,,,,,,,,,,,,,,,,,
,,,,,,,,,,,5588,woman,24,4-6h,2021-12-04_12h48.41.699,bachelor,2021.2.3,Win32,59.69080165,IwAR1U9sv7jt6-VzaoK-jLrG5svuDWOPsE4OrmrlNSodsVR0DslIWgxoNfjnw,,,left,2.1263,0,13,13,2,1,home,,,,,,,,,,,,,,,,,,,,,,,,,,,,,,,,,,,,,,,,,,,,,,,,,,,,,,,,,,,,,
,,,,,,,,,,,5588,woman,24,4-6h,2021-12-04_12h48.41.699,bachelor,2021.2.3,Win32,59.69080165,IwAR1U9sv7jt6-VzaoK-jLrG5svuDWOPsE4OrmrlNSodsVR0DslIWgxoNfjnw,,,right,1.8129,0,14,14,11,1,gasp,,,,,,,,,,,,,,,,,,,,,,,,,,,,,,,,,,,,,,,,,,,,,,,,,,,,,,,,,,,,,
,,,,,,,,,,,5588,woman,24,4-6h,2021-12-04_12h48.41.699,bachelor,2021.2.3,Win32,59.69080165,IwAR1U9sv7jt6-VzaoK-jLrG5svuDWOPsE4OrmrlNSodsVR0DslIWgxoNfjnw,,,right,1.5882,0,15,15,25,1,soccer,,,,,,,,,,,,,,,,,,,,,,,,,,,,,,,,,,,,,,,,,,,,,,,,,,,,,,,,,,,,,
,,,,,,,,,,,5588,woman,24,4-6h,2021-12-04_12h48.41.699,bachelor,2021.2.3,Win32,59.69080165,IwAR1U9sv7jt6-VzaoK-jLrG5svuDWOPsE4OrmrlNSodsVR0DslIWgxoNfjnw,,,right,1.2755,0,16,16,12,1,forest,,,,,,,,,,,,,,,,,,,,,,,,,,,,,,,,,,,,,,,,,,,,,,,,,,,,,,,,,,,,,
,,,,,,,,,,,5588,woman,24,4-6h,2021-12-04_12h48.41.699,bachelor,2021.2.3,Win32,59.69080165,IwAR1U9sv7jt6-VzaoK-jLrG5svuDWOPsE4OrmrlNSodsVR0DslIWgxoNfjnw,,,right,0.9474,0,17,17,15,1,minister,,,,,,,,,,,,,,,,,,,,,,,,,,,,,,,,,,,,,,,,,,,,,,,,,,,,,,,,,,,,,
,,,,,,,,,,,5588,woman,24,4-6h,2021-12-04_12h48.41.699,bachelor,2021.2.3,Win32,59.69080165,IwAR1U9sv7jt6-VzaoK-jLrG5svuDWOPsE4OrmrlNSodsVR0DslIWgxoNfjnw,,,left,1.5402,0,18,18,22,1,woman,,,,,,,,,,,,,,,,,,,,,,,,,,,,,,,,,,,,,,,,,,,,,,,,,,,,,,,,,,,,,
,,,,,,,,,,,5588,woman,24,4-6h,2021-12-04_12h48.41.699,bachelor,2021.2.3,Win32,59.69080165,IwAR1U9sv7jt6-VzaoK-jLrG5svuDWOPsE4OrmrlNSodsVR0DslIWgxoNfjnw,,,left,3.3823,0,19,19,9,1,hot,,,,,,,,,,,,,,,,,,,,,,,,,,,,,,,,,,,,,,,,,,,,,,,,,,,,,,,,,,,,,
,,,,,,,,,,,5588,woman,24,4-6h,2021-12-04_12h48.41.699,bachelor,2021.2.3,Win32,59.69080165,IwAR1U9sv7jt6-VzaoK-jLrG5svuDWOPsE4OrmrlNSodsVR0DslIWgxoNfjnw,,,right,2.6153,0,20,20,13,1,belch,,,,,,,,,,,,,,,,,,,,,,,,,,,,,,,,,,,,,,,,,,,,,,,,,,,,,,,,,,,,,
,,,,,,,,,,,5588,woman,24,4-6h,2021-12-04_12h48.41.699,bachelor,2021.2.3,Win32,59.69080165,IwAR1U9sv7jt6-VzaoK-jLrG5svuDWOPsE4OrmrlNSodsVR0DslIWgxoNfjnw,,,left,1.3918,0,21,21,4,1,hospital,,,,,,,,,,,,,,,,,,,,,,,,,,,,,,,,,,,,,,,,,,,,,,,,,,,,,,,,,,,,,
,,,,,,,,,,,5588,woman,24,4-6h,2021-12-04_12h48.41.699,bachelor,2021.2.3,Win32,59.69080165,IwAR1U9sv7jt6-VzaoK-jLrG5svuDWOPsE4OrmrlNSodsVR0DslIWgxoNfjnw,,,left,1.4561,0,22,22,14,1,tourist,,,,,,,,,,,,,,,,,,,,,,,,,,,,,,,,,,,,,,,,,,,,,,,,,,,,,,,,,,,,,
,,,,,,,,,,,5588,woman,24,4-6h,2021-12-04_12h48.41.699,bachelor,2021.2.3,Win32,59.69080165,IwAR1U9sv7jt6-VzaoK-jLrG5svuDWOPsE4OrmrlNSodsVR0DslIWgxoNfjnw,,,right,3.5719,0,23,23,0,1,drank,,,,,,,,,,,,,,,,,,,,,,,,,,,,,,,,,,,,,,,,,,,,,,,,,,,,,,,,,,,,,
,,,,,,,,,,,5588,woman,24,4-6h,2021-12-04_12h48.41.699,bachelor,2021.2.3,Win32,59.69080165,IwAR1U9sv7jt6-VzaoK-jLrG5svuDWOPsE4OrmrlNSodsVR0DslIWgxoNfjnw,,,left,1.8677,0,24,24,3,1,foot,,,,,,,,,,,,,,,,,,,,,,,,,,,,,,,,,,,,,,,,,,,,,,,,,,,,,,,,,,,,,
,,,,,,,,,,,5588,woman,24,4-6h,2021-12-04_12h48.41.699,bachelor,2021.2.3,Win32,59.69080165,IwAR1U9sv7jt6-VzaoK-jLrG5svuDWOPsE4OrmrlNSodsVR0DslIWgxoNfjnw,,,right,1.119,0,25,25,6,1,airport,,,,,,,,,,,,,,,,,,,,,,,,,,,,,,,,,,,,,,,,,,,,,,,,,,,,,,,,,,,,,
,,,,,,,,,,,5588,woman,24,4-6h,2021-12-04_12h48.41.699,bachelor,2021.2.3,Win32,59.69080165,IwAR1U9sv7jt6-VzaoK-jLrG5svuDWOPsE4OrmrlNSodsVR0DslIWgxoNfjnw,,,right,2.0176,0,26,26,1,1,ricochet,,,,,,,,,,,,,,,,,,,,,,,,,,,,,,,,,,,,,,,,,,,,,,,,,,,,,,,,,,,,,
,,,,,,,,,,,5588,woman,24,4-6h,2021-12-04_12h48.41.699,bachelor,2021.2.3,Win32,59.69080165,IwAR1U9sv7jt6-VzaoK-jLrG5svuDWOPsE4OrmrlNSodsVR0DslIWgxoNfjnw,,,right,1.9838,0,27,27,5,1,cold,,,,,,,,,,,,,,,,,,,,,,,,,,,,,,,,,,,,,,,,,,,,,,,,,,,,,,,,,,,,,
,,,,,,,,,,,5588,woman,24,4-6h,2021-12-04_12h48.41.699,bachelor,2021.2.3,Win32,59.69080165,IwAR1U9sv7jt6-VzaoK-jLrG5svuDWOPsE4OrmrlNSodsVR0DslIWgxoNfjnw,,,,,,,,,,,space,14.2809,,0,0,0,0,1,5 x 5 - 10 = 22?,,,,,,,,,,,,,,,,,,,,,,,,,,,,,,,,,,,,,,,,,,,,,,,,,,,,
,,,,,,,,,,,5588,woman,24,4-6h,2021-12-04_12h48.41.699,bachelor,2021.2.3,Win32,59.69080165,IwAR1U9sv7jt6-VzaoK-jLrG5svuDWOPsE4OrmrlNSodsVR0DslIWgxoNfjnw,,,,,,,,,,,,,right,0,1,1,1,1,10 - 18 + 1 = -9?,4.2567,,,,,,,,,,,,,,,,,,,,,,,,,,,,,,,,,,,,,,,,,,,,,,,,,,,
,,,,,,,,,,,5588,woman,24,4-6h,2021-12-04_12h48.41.699,bachelor,2021.2.3,Win32,59.69080165,IwAR1U9sv7jt6-VzaoK-jLrG5svuDWOPsE4OrmrlNSodsVR0DslIWgxoNfjnw,,,,,,,,,,,,,left,0,2,2,3,1,2 + 20 x 4 = 82?,3.9009,,,,,,,,,,,,,,,,,,,,,,,,,,,,,,,,,,,,,,,,,,,,,,,,,,,
,,,,,,,,,,,5588,woman,24,4-6h,2021-12-04_12h48.41.699,bachelor,2021.2.3,Win32,59.69080165,IwAR1U9sv7jt6-VzaoK-jLrG5svuDWOPsE4OrmrlNSodsVR0DslIWgxoNfjnw,,,,,,,,,,,,,,0,3,3,4,1,11 + 3 - 7 = 8?,,,,,,,,,,,,,,,,,,,,,,,,,,,,,,,,,,,,,,,,,,,,,,,,,,,,
,,,,,,,,,,,5588,woman,24,4-6h,2021-12-04_12h48.41.699,bachelor,2021.2.3,Win32,59.69080165,IwAR1U9sv7jt6-VzaoK-jLrG5svuDWOPsE4OrmrlNSodsVR0DslIWgxoNfjnw,,,,,,,,,,,,,,0,4,4,2,1,10 - 5 - 16 = 21?,,,,,,,,,,,,,,,,,,,,,,,,,,,,,,,,,,,,,,,,,,,,,,,,,,,,
,,,,,,,,,,,5588,woman,24,4-6h,2021-12-04_12h48.41.699,bachelor,2021.2.3,Win32,59.69080165,IwAR1U9sv7jt6-VzaoK-jLrG5svuDWOPsE4OrmrlNSodsVR0DslIWgxoNfjnw,,,,,,,,,,,,,,,,,,,35 - 65 - 20 = - 55?,,space,3.9968,left,3.3375,0,0,0,10,1,RESPONSE RECORDED,0,right,,,,,,,,,,,,,,,,,,,,,,,,,,,,,,,,,,,,,,,
,,,,,,,,,,,5588,woman,24,4-6h,2021-12-04_12h48.41.699,bachelor,2021.2.3,Win32,59.69080165,IwAR1U9sv7jt6-VzaoK-jLrG5svuDWOPsE4OrmrlNSodsVR0DslIWgxoNfjnw,,,,,,,,,,,,,,,,,,,50 x 3 + 12 = 147?,,,,right,3.0874,0,1,1,1,1,SPEED UP,1,left,,,,,,,,,,,,,,,,,,,,,,,,,,,,,,,,,,,,,,,
,,,,,,,,,,,5588,woman,24,4-6h,2021-12-04_12h48.41.699,bachelor,2021.2.3,Win32,59.69080165,IwAR1U9sv7jt6-VzaoK-jLrG5svuDWOPsE4OrmrlNSodsVR0DslIWgxoNfjnw,,,,,,,,,,,,,,,,,,,2 x 40 + 3 = 84?,,,,right,2.837,0,2,2,6,1,RESPONSE RECORDED,0,right,,,,,,,,,,,,,,,,,,,,,,,,,,,,,,,,,,,,,,,
,,,,,,,,,,,5588,woman,24,4-6h,2021-12-04_12h48.41.699,bachelor,2021.2.3,Win32,59.69080165,IwAR1U9sv7jt6-VzaoK-jLrG5svuDWOPsE4OrmrlNSodsVR0DslIWgxoNfjnw,,,,,,,,,,,,,,,,,,,5 x 5 - 29 = -40?,,,,right,3.521,0,3,3,7,1,SPEED UP,0,right,,,,,,,,,,,,,,,,,,,,,,,,,,,,,,,,,,,,,,,
,,,,,,,,,,,5588,woman,24,4-6h,2021-12-04_12h48.41.699,bachelor,2021.2.3,Win32,59.69080165,IwAR1U9sv7jt6-VzaoK-jLrG5svuDWOPsE4OrmrlNSodsVR0DslIWgxoNfjnw,,,,,,,,,,,,,,,,,,,54 - 40 x -2 = - 27?,,,,left,4.7384,0,4,4,8,1,RESPONSE RECORDED,0,right,,,,,,,,,,,,,,,,,,,,,,,,,,,,,,,,,,,,,,,
,,,,,,,,,,,5588,woman,24,4-6h,2021-12-04_12h48.41.699,bachelor,2021.2.3,Win32,59.69080165,IwAR1U9sv7jt6-VzaoK-jLrG5svuDWOPsE4OrmrlNSodsVR0DslIWgxoNfjnw,,,,,,,,,,,,,,,,,,,14 x 2 - 3 = 25?,,,,,,0,5,5,13,1,TRY HARDER,1,left,,,,,,,,,,,,,,,,,,,,,,,,,,,,,,,,,,,,,,,
,,,,,,,,,,,5588,woman,24,4-6h,2021-12-04_12h48.41.699,bachelor,2021.2.3,Win32,59.69080165,IwAR1U9sv7jt6-VzaoK-jLrG5svuDWOPsE4OrmrlNSodsVR0DslIWgxoNfjnw,,,,,,,,,,,,,,,,,,,54 + 60 - 1 = 113?,,,,right,3.8217,0,6,6,5,1,PAY ATTENTION,1,left,,,,,,,,,,,,,,,,,,,,,,,,,,,,,,,,,,,,,,,
,,,,,,,,,,,5588,woman,24,4-6h,2021-12-04_12h48.41.699,bachelor,2021.2.3,Win32,59.69080165,IwAR1U9sv7jt6-VzaoK-jLrG5svuDWOPsE4OrmrlNSodsVR0DslIWgxoNfjnw,,,,,,,,,,,,,,,,,,,47 + 13 - 7 = 53?,,,,,,0,7,7,11,1,RESPONSE RECORDED,1,left,,,,,,,,,,,,,,,,,,,,,,,,,,,,,,,,,,,,,,,
,,,,,,,,,,,5588,woman,24,4-6h,2021-12-04_12h48.41.699,bachelor,2021.2.3,Win32,59.69080165,IwAR1U9sv7jt6-VzaoK-jLrG5svuDWOPsE4OrmrlNSodsVR0DslIWgxoNfjnw,,,,,,,,,,,,,,,,,,,2 - 15 + 39 = 27?,,,,left,4.7111,0,8,8,0,1,RESPONSE RECORDED,0,right,,,,,,,,,,,,,,,,,,,,,,,,,,,,,,,,,,,,,,,
,,,,,,,,,,,5588,woman,24,4-6h,2021-12-04_12h48.41.699,bachelor,2021.2.3,Win32,59.69080165,IwAR1U9sv7jt6-VzaoK-jLrG5svuDWOPsE4OrmrlNSodsVR0DslIWgxoNfjnw,,,,,,,,,,,,,,,,,,,7 x 11 - 21 = 56?,,,,right,3.3253,0,9,9,9,1,SPEED UP,1,left,,,,,,,,,,,,,,,,,,,,,,,,,,,,,,,,,,,,,,,
,,,,,,,,,,,5588,woman,24,4-6h,2021-12-04_12h48.41.699,bachelor,2021.2.3,Win32,59.69080165,IwAR1U9sv7jt6-VzaoK-jLrG5svuDWOPsE4OrmrlNSodsVR0DslIWgxoNfjnw,,,,,,,,,,,,,,,,,,,72 + 17 x 3 = 121?,,,,left,4.4756,0,10,10,2,1,RESPONSE RECORDED,0,right,,,,,,,,,,,,,,,,,,,,,,,,,,,,,,,,,,,,,,,
,,,,,,,,,,,5588,woman,24,4-6h,2021-12-04_12h48.41.699,bachelor,2021.2.3,Win32,59.69080165,IwAR1U9sv7jt6-VzaoK-jLrG5svuDWOPsE4OrmrlNSodsVR0DslIWgxoNfjnw,,,,,,,,,,,,,,,,,,,53 + 13 x 7 = -150?,,,,left,3.4898,0,11,11,12,1,YOU’RE NOT TRYING HARD ENOUGH,0,right,,,,,,,,,,,,,,,,,,,,,,,,,,,,,,,,,,,,,,,
,,,,,,,,,,,5588,woman,24,4-6h,2021-12-04_12h48.41.699,bachelor,2021.2.3,Win32,59.69080165,IwAR1U9sv7jt6-VzaoK-jLrG5svuDWOPsE4OrmrlNSodsVR0DslIWgxoNfjnw,,,,,,,,,,,,,,,,,,,6 - 58 + 11 = -41?,,,,,,0,12,12,3,1,RESPONSE RECORDED,1,left,,,,,,,,,,,,,,,,,,,,,,,,,,,,,,,,,,,,,,,
,,,,,,,,,,,5588,woman,24,4-6h,2021-12-04_12h48.41.699,bachelor,2021.2.3,Win32,59.69080165,IwAR1U9sv7jt6-VzaoK-jLrG5svuDWOPsE4OrmrlNSodsVR0DslIWgxoNfjnw,,,,,,,,,,,,,,,,,,,14 x 2 + 10 = 38?,,,,left,4.6783,0,13,13,4,1,CONCENTRATE,1,left,,,,,,,,,,,,,,,,,,,,,,,,,,,,,,,,,,,,,,,
,,,,,,,,,,,5588,woman,24,4-6h,2021-12-04_12h48.41.699,bachelor,2021.2.3,Win32,59.69080165,IwAR1U9sv7jt6-VzaoK-jLrG5svuDWOPsE4OrmrlNSodsVR0DslIWgxoNfjnw,,,,,,,,,,,,,,,,,,,33 - 15 - 49 = -40?,,,,,,,,,,,TRY HARDER,0,right,space,9.1159,right,4.2253,0,0,0,5,1,,,,,,,,,,,,,,,,,,,,,,,,,,,,,,
,,,,,,,,,,,5588,woman,24,4-6h,2021-12-04_12h48.41.699,bachelor,2021.2.3,Win32,59.69080165,IwAR1U9sv7jt6-VzaoK-jLrG5svuDWOPsE4OrmrlNSodsVR0DslIWgxoNfjnw,,,,,,,,,,,,,,,,,,,55 - 66 + 14 = 3?,,,,,,,,,,,RESPONSE RECORDED,1,left,,,right,2.9324,0,1,1,13,1,,,,,,,,,,,,,,,,,,,,,,,,,,,,,,
,,,,,,,,,,,5588,woman,24,4-6h,2021-12-04_12h48.41.699,bachelor,2021.2.3,Win32,59.69080165,IwAR1U9sv7jt6-VzaoK-jLrG5svuDWOPsE4OrmrlNSodsVR0DslIWgxoNfjnw,,,,,,,,,,,,,,,,,,,13 x 3 + 2 = 90?,,,,,,,,,,,RESPONSE RECORDED,0,right,,,right,4.0002,0,2,2,12,1,,,,,,,,,,,,,,,,,,,,,,,,,,,,,,
,,,,,,,,,,,5588,woman,24,4-6h,2021-12-04_12h48.41.699,bachelor,2021.2.3,Win32,59.69080165,IwAR1U9sv7jt6-VzaoK-jLrG5svuDWOPsE4OrmrlNSodsVR0DslIWgxoNfjnw,,,,,,,,,,,,,,,,,,,17 x 2 - 10 = 24?,,,,,,,,,,,RESPONSE RECORDED,1,left,,,,,0,3,3,0,1,,,,,,,,,,,,,,,,,,,,,,,,,,,,,,
,,,,,,,,,,,5588,woman,24,4-6h,2021-12-04_12h48.41.699,bachelor,2021.2.3,Win32,59.69080165,IwAR1U9sv7jt6-VzaoK-jLrG5svuDWOPsE4OrmrlNSodsVR0DslIWgxoNfjnw,,,,,,,,,,,,,,,,,,,10 x 11 + 45 = 155?,,,,,,,,,,,RESPONSE RECORDED,1,left,,,,,0,4,4,10,1,,,,,,,,,,,,,,,,,,,,,,,,,,,,,,
,,,,,,,,,,,5588,woman,24,4-6h,2021-12-04_12h48.41.699,bachelor,2021.2.3,Win32,59.69080165,IwAR1U9sv7jt6-VzaoK-jLrG5svuDWOPsE4OrmrlNSodsVR0DslIWgxoNfjnw,,,,,,,,,,,,,,,,,,,6 - 13 + 4 = -3?,,,,,,,,,,,CONCENTRATE,1,left,,,,,0,5,5,3,1,,,,,,,,,,,,,,,,,,,,,,,,,,,,,,
,,,,,,,,,,,5588,woman,24,4-6h,2021-12-04_12h48.41.699,bachelor,2021.2.3,Win32,59.69080165,IwAR1U9sv7jt6-VzaoK-jLrG5svuDWOPsE4OrmrlNSodsVR0DslIWgxoNfjnw,,,,,,,,,,,,,,,,,,,62 - 15 x 3 = 5?,,,,,,,,,,,PAY ATTENTION,0,right,,,left,1.4435,0,6,6,8,1,,,,,,,,,,,,,,,,,,,,,,,,,,,,,,
,,,,,,,,,,,5588,woman,24,4-6h,2021-12-04_12h48.41.699,bachelor,2021.2.3,Win32,59.69080165,IwAR1U9sv7jt6-VzaoK-jLrG5svuDWOPsE4OrmrlNSodsVR0DslIWgxoNfjnw,,,,,,,,,,,,,,,,,,,7 - 8 - 9 = -11?,,,,,,,,,,,SPEED UP,0,right,,,right,2.245,0,7,7,7,1,,,,,,,,,,,,,,,,,,,,,,,,,,,,,,
,,,,,,,,,,,5588,woman,24,4-6h,2021-12-04_12h48.41.699,bachelor,2021.2.3,Win32,59.69080165,IwAR1U9sv7jt6-VzaoK-jLrG5svuDWOPsE4OrmrlNSodsVR0DslIWgxoNfjnw,,,,,,,,,,,,,,,,,,,56 - 6 x 3 = 33?,,,,,,,,,,,SPEED UP,0,right,,,right,3.1294,0,8,8,1,1,,,,,,,,,,,,,,,,,,,,,,,,,,,,,,
,,,,,,,,,,,5588,woman,24,4-6h,2021-12-04_12h48.41.699,bachelor,2021.2.3,Win32,59.69080165,IwAR1U9sv7jt6-VzaoK-jLrG5svuDWOPsE4OrmrlNSodsVR0DslIWgxoNfjnw,,,,,,,,,,,,,,,,,,,20 x 2 - 77 = 24?,,,,,,,,,,,YOU NEED TO CONCENTRATE,0,right,,,right,2.9111,0,9,9,11,1,,,,,,,,,,,,,,,,,,,,,,,,,,,,,,
,,,,,,,,,,,5588,woman,24,4-6h,2021-12-04_12h48.41.699,bachelor,2021.2.3,Win32,59.69080165,IwAR1U9sv7jt6-VzaoK-jLrG5svuDWOPsE4OrmrlNSodsVR0DslIWgxoNfjnw,,,,,,,,,,,,,,,,,,,7 x 11 - 21 = 56?,,,,,,,,,,,GO FASTER,1,left,,,right,4.6436,0,10,10,9,1,,,,,,,,,,,,,,,,,,,,,,,,,,,,,,
,,,,,,,,,,,5588,woman,24,4-6h,2021-12-04_12h48.41.699,bachelor,2021.2.3,Win32,59.69080165,IwAR1U9sv7jt6-VzaoK-jLrG5svuDWOPsE4OrmrlNSodsVR0DslIWgxoNfjnw,,,,,,,,,,,,,,,,,,,12 + 10 x 4 = 70?,,,,,,,,,,,RESPONSE RECORDED,0,right,,,left,4.9659,0,11,11,6,1,,,,,,,,,,,,,,,,,,,,,,,,,,,,,,
,,,,,,,,,,,5588,woman,24,4-6h,2021-12-04_12h48.41.699,bachelor,2021.2.3,Win32,59.69080165,IwAR1U9sv7jt6-VzaoK-jLrG5svuDWOPsE4OrmrlNSodsVR0DslIWgxoNfjnw,,,,,,,,,,,,,,,,,,,7 + 46 + 16 = 67?,,,,,,,,,,,RESPONSE RECORDED,0,right,,,left,2.62,0,12,12,4,1,,,,,,,,,,,,,,,,,,,,,,,,,,,,,,
,,,,,,,,,,,5588,woman,24,4-6h,2021-12-04_12h48.41.699,bachelor,2021.2.3,Win32,59.69080165,IwAR1U9sv7jt6-VzaoK-jLrG5svuDWOPsE4OrmrlNSodsVR0DslIWgxoNfjnw,,,,,,,,,,,,,,,,,,,2 x 40 + 10 = 800?,,,,,,,,,,,RESPONSE RECORDED,0,right,,,right,2.3986,0,13,13,2,1,,,,,,,,,,,,,,,,,,,,,,,,,,,,,,
,,,,,,,,,"You have now completed the mental arithmetic task. You are halfway through the experiment.

Thank you for deciding to finish the tasks, it is much appreciated! Your effort is valued.

Press space to continue",,5588,woman,24,4-6h,2021-12-04_12h48.41.699,bachelor,2021.2.3,Win32,59.69080165,IwAR1U9sv7jt6-VzaoK-jLrG5svuDWOPsE4OrmrlNSodsVR0DslIWgxoNfjnw,,,,,,,,,,,,,,,,,,,,,,,,,,,,,,,,,,,,,,,,,,space,6.2224,0,0,0,0,1,,,,,,,,,,,,,,,,,,,,,,,
,,,,,,,,,,,5588,woman,24,4-6h,2021-12-04_12h48.41.699,bachelor,2021.2.3,Win32,59.69080165,IwAR1U9sv7jt6-VzaoK-jLrG5svuDWOPsE4OrmrlNSodsVR0DslIWgxoNfjnw,,,,,,,,,,volcano,,,,,,,,,,,,,,,,,,,,,,,,,,,,,,,,,,,,,,,space,8.4098,right,1.6406,0,0,0,19,1,,,,,,,,,,,,,,
,,,,,,,,,,,5588,woman,24,4-6h,2021-12-04_12h48.41.699,bachelor,2021.2.3,Win32,59.69080165,IwAR1U9sv7jt6-VzaoK-jLrG5svuDWOPsE4OrmrlNSodsVR0DslIWgxoNfjnw,,,,,,,,,,handshake,,,,,,,,,,,,,,,,,,,,,,,,,,,,,,,,,,,,,,,,,left,0.8015,0,1,1,1,1,,,,,,,,,,,,,,
,,,,,,,,,,,5588,woman,24,4-6h,2021-12-04_12h48.41.699,bachelor,2021.2.3,Win32,59.69080165,IwAR1U9sv7jt6-VzaoK-jLrG5svuDWOPsE4OrmrlNSodsVR0DslIWgxoNfjnw,,,,,,,,,,businessman,,,,,,,,,,,,,,,,,,,,,,,,,,,,,,,,,,,,,,,,,right,1.3711,0,2,2,16,1,,,,,,,,,,,,,,
,,,,,,,,,,,5588,woman,24,4-6h,2021-12-04_12h48.41.699,bachelor,2021.2.3,Win32,59.69080165,IwAR1U9sv7jt6-VzaoK-jLrG5svuDWOPsE4OrmrlNSodsVR0DslIWgxoNfjnw,,,,,,,,,,bridge,,,,,,,,,,,,,,,,,,,,,,,,,,,,,,,,,,,,,,,,,left,1.4343,0,3,3,14,1,,,,,,,,,,,,,,
,,,,,,,,,,,5588,woman,24,4-6h,2021-12-04_12h48.41.699,bachelor,2021.2.3,Win32,59.69080165,IwAR1U9sv7jt6-VzaoK-jLrG5svuDWOPsE4OrmrlNSodsVR0DslIWgxoNfjnw,,,,,,,,,,embassy,,,,,,,,,,,,,,,,,,,,,,,,,,,,,,,,,,,,,,,,,right,1.2127,0,4,4,6,1,,,,,,,,,,,,,,
,,,,,,,,,,,5588,woman,24,4-6h,2021-12-04_12h48.41.699,bachelor,2021.2.3,Win32,59.69080165,IwAR1U9sv7jt6-VzaoK-jLrG5svuDWOPsE4OrmrlNSodsVR0DslIWgxoNfjnw,,,,,,,,,,squeal,,,,,,,,,,,,,,,,,,,,,,,,,,,,,,,,,,,,,,,,,left,1.284,0,5,5,9,1,,,,,,,,,,,,,,
,,,,,,,,,,,5588,woman,24,4-6h,2021-12-04_12h48.41.699,bachelor,2021.2.3,Win32,59.69080165,IwAR1U9sv7jt6-VzaoK-jLrG5svuDWOPsE4OrmrlNSodsVR0DslIWgxoNfjnw,,,,,,,,,,politician,,,,,,,,,,,,,,,,,,,,,,,,,,,,,,,,,,,,,,,,,right,1.2356,0,6,6,22,1,,,,,,,,,,,,,,
,,,,,,,,,,,5588,woman,24,4-6h,2021-12-04_12h48.41.699,bachelor,2021.2.3,Win32,59.69080165,IwAR1U9sv7jt6-VzaoK-jLrG5svuDWOPsE4OrmrlNSodsVR0DslIWgxoNfjnw,,,,,,,,,,sled,,,,,,,,,,,,,,,,,,,,,,,,,,,,,,,,,,,,,,,,,left,1.2175,0,7,7,5,1,,,,,,,,,,,,,,
,,,,,,,,,,,5588,woman,24,4-6h,2021-12-04_12h48.41.699,bachelor,2021.2.3,Win32,59.69080165,IwAR1U9sv7jt6-VzaoK-jLrG5svuDWOPsE4OrmrlNSodsVR0DslIWgxoNfjnw,,,,,,,,,,clang,,,,,,,,,,,,,,,,,,,,,,,,,,,,,,,,,,,,,,,,,right,1.3601,0,8,8,13,1,,,,,,,,,,,,,,
,,,,,,,,,,,5588,woman,24,4-6h,2021-12-04_12h48.41.699,bachelor,2021.2.3,Win32,59.69080165,IwAR1U9sv7jt6-VzaoK-jLrG5svuDWOPsE4OrmrlNSodsVR0DslIWgxoNfjnw,,,,,,,,,,truck,,,,,,,,,,,,,,,,,,,,,,,,,,,,,,,,,,,,,,,,,left,1.2067,0,9,9,17,1,,,,,,,,,,,,,,
,,,,,,,,,,,5588,woman,24,4-6h,2021-12-04_12h48.41.699,bachelor,2021.2.3,Win32,59.69080165,IwAR1U9sv7jt6-VzaoK-jLrG5svuDWOPsE4OrmrlNSodsVR0DslIWgxoNfjnw,,,,,,,,,,jaw,,,,,,,,,,,,,,,,,,,,,,,,,,,,,,,,,,,,,,,,,left,1.4839,0,10,10,0,1,,,,,,,,,,,,,,
,,,,,,,,,,,5588,woman,24,4-6h,2021-12-04_12h48.41.699,bachelor,2021.2.3,Win32,59.69080165,IwAR1U9sv7jt6-VzaoK-jLrG5svuDWOPsE4OrmrlNSodsVR0DslIWgxoNfjnw,,,,,,,,,,football,,,,,,,,,,,,,,,,,,,,,,,,,,,,,,,,,,,,,,,,,left,1.8124,0,11,11,27,1,,,,,,,,,,,,,,
,,,,,,,,,,,5588,woman,24,4-6h,2021-12-04_12h48.41.699,bachelor,2021.2.3,Win32,59.69080165,IwAR1U9sv7jt6-VzaoK-jLrG5svuDWOPsE4OrmrlNSodsVR0DslIWgxoNfjnw,,,,,,,,,,thunder,,,,,,,,,,,,,,,,,,,,,,,,,,,,,,,,,,,,,,,,,right,1.1616,0,12,12,21,1,,,,,,,,,,,,,,
,,,,,,,,,,,5588,woman,24,4-6h,2021-12-04_12h48.41.699,bachelor,2021.2.3,Win32,59.69080165,IwAR1U9sv7jt6-VzaoK-jLrG5svuDWOPsE4OrmrlNSodsVR0DslIWgxoNfjnw,,,,,,,,,,school,,,,,,,,,,,,,,,,,,,,,,,,,,,,,,,,,,,,,,,,,right,0.9903,0,13,13,10,1,,,,,,,,,,,,,,
,,,,,,,,,,,5588,woman,24,4-6h,2021-12-04_12h48.41.699,bachelor,2021.2.3,Win32,59.69080165,IwAR1U9sv7jt6-VzaoK-jLrG5svuDWOPsE4OrmrlNSodsVR0DslIWgxoNfjnw,,,,,,,,,,farm,,,,,,,,,,,,,,,,,,,,,,,,,,,,,,,,,,,,,,,,,right,1.5445,0,14,14,12,1,,,,,,,,,,,,,,
,,,,,,,,,,,5588,woman,24,4-6h,2021-12-04_12h48.41.699,bachelor,2021.2.3,Win32,59.69080165,IwAR1U9sv7jt6-VzaoK-jLrG5svuDWOPsE4OrmrlNSodsVR0DslIWgxoNfjnw,,,,,,,,,,ate,,,,,,,,,,,,,,,,,,,,,,,,,,,,,,,,,,,,,,,,,left,0.9443,0,15,15,4,1,,,,,,,,,,,,,,
,,,,,,,,,,,5588,woman,24,4-6h,2021-12-04_12h48.41.699,bachelor,2021.2.3,Win32,59.69080165,IwAR1U9sv7jt6-VzaoK-jLrG5svuDWOPsE4OrmrlNSodsVR0DslIWgxoNfjnw,,,,,,,,,,diplomat,,,,,,,,,,,,,,,,,,,,,,,,,,,,,,,,,,,,,,,,,left,2.9258,0,16,16,20,1,,,,,,,,,,,,,,
,,,,,,,,,,,5588,woman,24,4-6h,2021-12-04_12h48.41.699,bachelor,2021.2.3,Win32,59.69080165,IwAR1U9sv7jt6-VzaoK-jLrG5svuDWOPsE4OrmrlNSodsVR0DslIWgxoNfjnw,,,,,,,,,,delirium,,,,,,,,,,,,,,,,,,,,,,,,,,,,,,,,,,,,,,,,,right,1.3229,0,17,17,7,1,,,,,,,,,,,,,,
,,,,,,,,,,,5588,woman,24,4-6h,2021-12-04_12h48.41.699,bachelor,2021.2.3,Win32,59.69080165,IwAR1U9sv7jt6-VzaoK-jLrG5svuDWOPsE4OrmrlNSodsVR0DslIWgxoNfjnw,,,,,,,,,,leg,,,,,,,,,,,,,,,,,,,,,,,,,,,,,,,,,,,,,,,,,left,0.8842,0,18,18,2,1,,,,,,,,,,,,,,
,,,,,,,,,,,5588,woman,24,4-6h,2021-12-04_12h48.41.699,bachelor,2021.2.3,Win32,59.69080165,IwAR1U9sv7jt6-VzaoK-jLrG5svuDWOPsE4OrmrlNSodsVR0DslIWgxoNfjnw,,,,,,,,,,student,,,,,,,,,,,,,,,,,,,,,,,,,,,,,,,,,,,,,,,,,left,1.1198,0,19,19,18,1,,,,,,,,,,,,,,
,,,,,,,,,,,5588,woman,24,4-6h,2021-12-04_12h48.41.699,bachelor,2021.2.3,Win32,59.69080165,IwAR1U9sv7jt6-VzaoK-jLrG5svuDWOPsE4OrmrlNSodsVR0DslIWgxoNfjnw,,,,,,,,,,mouth,,,,,,,,,,,,,,,,,,,,,,,,,,,,,,,,,,,,,,,,,left,0.8074,0,20,20,24,1,,,,,,,,,,,,,,
,,,,,,,,,,,5588,woman,24,4-6h,2021-12-04_12h48.41.699,bachelor,2021.2.3,Win32,59.69080165,IwAR1U9sv7jt6-VzaoK-jLrG5svuDWOPsE4OrmrlNSodsVR0DslIWgxoNfjnw,,,,,,,,,,nose,,,,,,,,,,,,,,,,,,,,,,,,,,,,,,,,,,,,,,,,,left,0.6544,0,21,21,26,1,,,,,,,,,,,,,,
,,,,,,,,,,,5588,woman,24,4-6h,2021-12-04_12h48.41.699,bachelor,2021.2.3,Win32,59.69080165,IwAR1U9sv7jt6-VzaoK-jLrG5svuDWOPsE4OrmrlNSodsVR0DslIWgxoNfjnw,,,,,,,,,,actor,,,,,,,,,,,,,,,,,,,,,,,,,,,,,,,,,,,,,,,,,right,1.3175,0,22,22,23,1,,,,,,,,,,,,,,
,,,,,,,,,,,5588,woman,24,4-6h,2021-12-04_12h48.41.699,bachelor,2021.2.3,Win32,59.69080165,IwAR1U9sv7jt6-VzaoK-jLrG5svuDWOPsE4OrmrlNSodsVR0DslIWgxoNfjnw,,,,,,,,,,soft,,,,,,,,,,,,,,,,,,,,,,,,,,,,,,,,,,,,,,,,,right,1.2007,0,23,23,11,1,,,,,,,,,,,,,,
,,,,,,,,,,,5588,woman,24,4-6h,2021-12-04_12h48.41.699,bachelor,2021.2.3,Win32,59.69080165,IwAR1U9sv7jt6-VzaoK-jLrG5svuDWOPsE4OrmrlNSodsVR0DslIWgxoNfjnw,,,,,,,,,,rocket,,,,,,,,,,,,,,,,,,,,,,,,,,,,,,,,,,,,,,,,,right,1.0562,0,24,24,15,1,,,,,,,,,,,,,,
,,,,,,,,,,,5588,woman,24,4-6h,2021-12-04_12h48.41.699,bachelor,2021.2.3,Win32,59.69080165,IwAR1U9sv7jt6-VzaoK-jLrG5svuDWOPsE4OrmrlNSodsVR0DslIWgxoNfjnw,,,,,,,,,,stole,,,,,,,,,,,,,,,,,,,,,,,,,,,,,,,,,,,,,,,,,right,1.1849,0,25,25,3,1,,,,,,,,,,,,,,
,,,,,,,,,,,5588,woman,24,4-6h,2021-12-04_12h48.41.699,bachelor,2021.2.3,Win32,59.69080165,IwAR1U9sv7jt6-VzaoK-jLrG5svuDWOPsE4OrmrlNSodsVR0DslIWgxoNfjnw,,,,,,,,,,store,,,,,,,,,,,,,,,,,,,,,,,,,,,,,,,,,,,,,,,,,right,0.8995,0,26,26,8,1,,,,,,,,,,,,,,
,,,,,,,,,,,5588,woman,24,4-6h,2021-12-04_12h48.41.699,bachelor,2021.2.3,Win32,59.69080165,IwAR1U9sv7jt6-VzaoK-jLrG5svuDWOPsE4OrmrlNSodsVR0DslIWgxoNfjnw,,,,,,,,,,shiny,,,,,,,,,,,,,,,,,,,,,,,,,,,,,,,,,,,,,,,,,right,1.3191,0,27,27,25,1,,,,,,,,,,,,,,
,,,,,,,,,,,5588,woman,24,4-6h,2021-12-04_12h48.41.699,bachelor,2021.2.3,Win32,59.69080165,IwAR1U9sv7jt6-VzaoK-jLrG5svuDWOPsE4OrmrlNSodsVR0DslIWgxoNfjnw,,,,,,,,,,,,,,,,,,,,,,,,,,,,,,,,,,,,,,,,,,,,,,,,,,,,,,,,,,space,6.0087,5,12.4603,0,0,0,0,1,I felt excluded during the experiment.,,,,
,,,,,,,,,,,5588,woman,24,4-6h,2021-12-04_12h48.41.699,bachelor,2021.2.3,Win32,59.69080165,IwAR1U9sv7jt6-VzaoK-jLrG5svuDWOPsE4OrmrlNSodsVR0DslIWgxoNfjnw,,,,,,,,,,,,,,,,,,,,,,,,,,,,,,,,,,,,,,,,,,,,,,,,,,,,,,,,,,,,3,10.9147,0,1,1,1,1,Negative feedback showed me that I had lower task competencies than the other participants.,,,,
,,,,,,,,,,,5588,woman,24,4-6h,2021-12-04_12h48.41.699,bachelor,2021.2.3,Win32,59.69080165,IwAR1U9sv7jt6-VzaoK-jLrG5svuDWOPsE4OrmrlNSodsVR0DslIWgxoNfjnw,,,,,,,,,,,,,,,,,,,,,,,,,,,,,,,,,,,,,,,,,,,,,,,,,,,,,,,,,,,,7,3.4344,0,2,2,3,1,I felt stressed during the experiment.,,,,
,,,,,,,,,,,5588,woman,24,4-6h,2021-12-04_12h48.41.699,bachelor,2021.2.3,Win32,59.69080165,IwAR1U9sv7jt6-VzaoK-jLrG5svuDWOPsE4OrmrlNSodsVR0DslIWgxoNfjnw,,,,,,,,,,,,,,,,,,,,,,,,,,,,,,,,,,,,,,,,,,,,,,,,,,,,,,,,,,,,3,6.2638,0,3,3,2,1,I felt alone during the experiment.,,,,
,,,,,,,,,,,5588,woman,24,4-6h,2021-12-04_12h48.41.699,bachelor,2021.2.3,Win32,59.69080165,IwAR1U9sv7jt6-VzaoK-jLrG5svuDWOPsE4OrmrlNSodsVR0DslIWgxoNfjnw,,,,,,,,,,,,,,,,,,,,,,,,,,,,,,,,,,,,,,,,,,,,,,,,,,,,,,,,,,,,,,,,,,,,space,28.9454,space,11.9801
